Time,Voltage,Current,Accel_X,Accel_Y,Accel_Z,Gyro_X,Gyro_Y,Gyro_Z
0.0,12.115236977032895,5.2145975079958795,-0.03898763752714536,0.8948058559351362,-0.017170346543196546,1.0876044906090545,0.10381204615044293,0.9693806377330151
0.020004000800160033,12.096749144422551,5.35720742140292,-0.19273554686283106,0.8609931932267836,-0.14797666861876604,0.890365114778447,0.2551986300526878,0.8416736808443696
0.040008001600320066,11.97199620231073,5.27485238702205,0.0018525152364912423,1.0767917323797989,0.2286876228543804,1.1306943059346317,0.07955319749994325,0.9930198973385532
0.0600120024004801,12.095791988358286,5.289970719903058,0.07341422202958935,1.077395388461644,-0.0631747441663085,1.1090094304032632,-0.18493065662654856,0.9655630811868883
0.08001600320064013,12.01038357732769,5.387216818852468,0.1339427035168742,0.9216867545470012,-0.07125063610191956,0.8848681353806314,0.029397840195958924,0.9670004733899813
0.10002000400080016,11.86014112221082,5.266078241585768,0.12142974653533956,1.03051467828979,0.024947674308306474,1.0594985527116993,0.079552653318511,0.9944674881303037
0.1200240048009602,12.071859501452586,5.345855367560182,-0.03191131400866067,1.1032048170602702,0.18517286669362112,1.0518636592125314,-0.03360841377948233,1.165277529337053
0.14002800560112022,12.03730623771031,5.292876936822889,0.023701966271691927,1.0574777620918214,0.05297686589947974,1.0688728436987294,-0.0786668070729399,0.9491742937501585
0.16003200640128026,12.124764567471907,5.304798809404143,0.008577364587964459,1.1007376743579935,-0.06703997740108111,1.079743630064782,-0.06647787186873363,0.9729943242825871
0.1800360072014403,12.143879407670978,5.357766740288281,-0.14997478248954504,0.9531322689590632,0.05472799969708805,1.0809664532359493,-0.1698124247266446,0.9545087597693408
0.20004000800160032,11.94952212139418,5.337936266861067,0.23452632636428977,1.0108737706403443,-0.13586601632346035,0.9787093582039293,-0.02719341172346646,1.0919176150557262
0.22004400880176037,12.125135196149674,5.37352859129369,0.0031468343471006688,0.9312394462149499,-0.0021853107274711348,0.853826990924599,0.13771979316370092,1.0513787940201222
0.2400480096019204,11.882573563886083,5.312377407800045,0.2180217049176469,0.8667166574284996,-0.12187815421562262,1.166735249589368,0.05431030973794514,0.943533293930414
0.2600520104020804,11.979878631002531,5.273419320720395,0.08981369099160491,1.1292535336763538,0.19203778641606256,1.074396530929853,0.23516943635130821,1.1420008135180066
0.28005601120224044,11.870694810238811,5.3053427221214005,-0.0024498816842082466,1.0168024082968292,0.013469699228070432,1.093949471259939,0.1485619340563522,0.9473409777196279
0.3000600120024005,12.052289994047888,5.330534898223634,0.2144458759679428,0.8051320670452793,0.07777793626011756,1.1320123743132555,-0.0275051973129751,0.9815013315581308
0.3200640128025605,12.001372111893053,5.205207901279078,0.14275729159581171,0.9142305737017706,0.03900714819174682,1.1130162103314685,-0.06450741451866808,0.923187080795952
0.34006801360272054,12.00618927816633,5.192732544998522,0.08812488036793215,1.0437587369872579,0.0852501003013123,1.0587427997923553,0.02092743633663245,1.0047627620599244
0.3600720144028806,12.05706711277886,5.319368971460387,0.07180326070555433,1.0136623856972344,0.12895516278953065,0.8921745224338398,0.14915719237115993,1.001728465017659
0.38007601520304063,12.154356116053266,5.455155242386786,0.18886824107157574,0.9179944597998256,0.12704648875758343,1.003095626506672,0.3776876242186059,0.8612971561871912
0.40008001600320064,12.22221748825377,5.2831605618100586,0.1018958621203496,0.9265687770307979,-0.03152206877997944,0.7617478983565183,0.10042144366620413,0.9143246341740342
0.4200840168033607,11.8294964282222,5.261222099361126,0.15435552899418437,0.9166396706575025,0.025994397186316985,1.0067102273926771,0.17860927025888917,0.6663074199203616
0.44008801760352073,12.107228285131754,5.218148963936426,0.15588940127059409,0.9240315392006972,0.2297773015287224,1.171937279317821,-0.06541483476730682,0.8555341136076949
0.46009201840368075,12.031328803665994,5.32417418765995,0.1676918492847014,0.895613200175126,0.07290844460363217,0.9641701524690557,0.029789032492306577,1.0048704517202862
0.4800960192038408,12.162006577953711,5.282783147003947,0.194191975955298,1.0285781686834023,0.02761745084906639,1.009010278427324,0.06975409383206141,1.0950738704817853
0.5001000200040008,12.004197134621554,5.330983888038313,0.34082760232110887,0.9900022571328128,-0.06860996326008455,0.9686268612978647,0.04096614847004805,0.7642273902478472
0.5201040208041608,12.028022471397989,5.275660931730616,0.2625018799955477,1.068077619732487,0.2719505669290635,0.9452469176005622,0.10654038965175638,1.0697156389245759
0.5401080216043209,12.279492660291677,5.223587037337133,0.085211164397164,0.8986445342065338,0.20237963979514362,0.9948074177788614,0.09857420524714809,1.0044660278610318
0.5601120224044809,12.224820169550625,5.295455371279404,0.23706029623565628,0.8893492635541899,0.010699948424542222,1.017895752689404,0.12287637243970968,0.9407695596045402
0.580116023204641,12.268387963729873,5.2399077922926525,0.40390578967840685,1.0097882450638496,0.07514786176952298,1.0583479265346585,0.048478610737694605,0.9999714801615665
0.600120024004801,12.022826368586356,5.256528785127059,0.08446788256202924,0.8560299291799616,0.024751932905717006,0.9107401898458001,-0.14040916408724655,0.8544282060559014
0.620124024804961,11.929192057467041,5.336597694085612,0.15172990692158547,1.0340250272148048,0.010010390835996835,0.8001872100456023,0.1531392227170506,1.0542686819954772
0.640128025605121,12.00439602660146,5.233406170816636,0.2025082510364864,0.9728664930892884,0.05473989390432392,0.9447862838734659,0.05497841967799598,0.9935623306281701
0.6601320264052811,12.158918821246953,5.278239744466989,0.09645841692595888,0.837614710015731,0.03995479355258939,1.1288297731184835,0.17944979321752144,1.1306108455550765
0.6801360272054411,12.12680924645809,5.3049152881515855,0.2624258631685474,0.9915078625402267,0.3407219572818895,0.9864008571640716,0.05404986887041892,1.1525610838655453
0.7001400280056012,12.068858199874025,5.269103055676047,0.14146698469924557,1.2190745856016507,-0.027010668346577255,1.0623468430070089,0.10773270181314312,0.990750985948179
0.7201440288057612,12.064465285779216,5.149546472969885,0.28424287694172484,0.9486197937024564,0.2262813405146094,1.0987354627598334,0.1883155536247216,1.0270305115452765
0.7401480296059212,12.191104299170444,5.27804718152641,0.12319336213868179,1.083801738772764,0.20798556218553493,1.1601703227024256,0.12820557894344564,0.9303429658450858
0.7601520304060813,12.01138083419755,5.339665733017608,0.4847957806986985,1.1007549449533482,0.2519296511306449,1.035595123593068,0.06425800673878417,1.1302434013639098
0.7801560312062413,12.064726150961473,5.231992083259369,0.004571972060404994,0.977738573028265,0.19909774433342475,0.9764285373727507,0.1488689492982884,0.9170561935264769
0.8001600320064013,12.107752806126582,5.227955662859514,0.16208218065565566,0.9537279299648231,0.14778111048832532,1.185575069855172,0.08837065448262738,0.8632870341641833
0.8201640328065614,12.103143338774634,5.2671134234325265,0.18108757355063046,0.73373662713766,0.13437451667348665,1.0034177750169253,0.23487898077413116,0.9671605444244279
0.8401680336067214,12.08505691115377,5.389729649662498,0.03307600769956029,0.8226110412657122,0.05515408818646861,0.8548386595673136,-0.13904097734588924,0.8642690760258318
0.8601720344068814,12.119574766953122,5.188433249772382,0.12348707148945004,0.8428475657722225,0.11693730802061275,0.8663218891094724,0.16017402649806076,1.3100441847103736
0.8801760352070415,11.83756025799215,5.266518348805497,0.46947262299890985,1.1786860350330906,0.2350734975780006,1.131262543124944,0.16203648541344282,0.9962279189566449
0.9001800360072015,11.978479595304302,5.388453427788848,0.29336185368550305,0.9677497562460614,0.2629665403887778,1.0127740776353948,0.23034747038537462,1.079951694971076
0.9201840368073615,12.134988858925926,5.2749896083196095,0.267558403579925,0.8985971711885741,0.27603899939364884,1.0582040375978792,0.1833966635650214,1.1108112262429315
0.9401880376075216,12.220449962811424,5.279287134412595,0.3074083045877754,0.8406827734420358,0.21130497579390511,1.015489255504991,0.1359460559372529,0.8642862231820766
0.9601920384076816,12.172888750035494,5.3021531864131095,0.08382198305215521,0.9521565120323399,0.020018736746019422,1.0580381665820004,0.1968597694293608,1.0629813233895713
0.9801960392078416,12.071316543488805,5.297464795200144,0.3238743164391658,1.0024684486673892,0.06050867881200708,0.9721195892730625,0.243005169116224,1.065390450982538
1.0002000400080016,11.930100361566156,5.269652813199748,0.2585249473545086,0.9041890850562581,0.17831210853513096,1.0215541282686806,0.21679729041513357,0.9700192819464468
1.0202040408081616,11.97027196471031,5.295303658353376,0.3012439141754835,0.987010612632496,0.159159135529906,0.9467064806910905,0.27102783584719214,0.8364938039214334
1.0402080416083217,12.024312757702642,5.35660158401698,0.231148544035512,0.9406368435407227,0.3175799117247893,0.9999073552366468,0.10926959603302916,1.0094982202008063
1.0602120424084818,12.014941692285454,5.319360754618662,0.28517524503230485,0.8671777931839812,0.23995844283931303,1.0095320974883353,0.19744272091898304,0.8504619769646985
1.0802160432086418,12.182638926580058,5.273443288293574,0.42672565920654104,0.892838643684262,0.30001431480787955,1.122585553296291,0.10072125856407399,1.0627118051472733
1.100220044008802,12.05010648117369,5.367662531780624,0.36753721509002435,1.1037695174047677,0.08903342415596388,1.0607504193436803,0.1448309966618318,1.0452874749657524
1.1202240448089618,12.253694876444358,5.291485550009363,0.3366752292985375,0.8016682355456447,0.03277951262704762,0.9730376474992088,0.12217836865634883,0.8628691625293421
1.1402280456091218,12.111518032603254,5.3346975573468285,0.30910922602405216,0.7799269982209792,0.3182014932867703,0.9902610189524318,0.291439178592349,0.9096115748876763
1.160232046409282,12.086719069883813,5.317580589459053,0.38321185602603486,0.7113588866197513,0.11364156051821771,0.9320863759565992,0.34019951814278904,1.0613217443714054
1.180236047209442,12.148321407132077,5.304282619183742,0.4954945093766993,0.9976107998170507,0.244146326633487,1.0568307122811675,0.2345786773570068,1.0528579067248007
1.200240048009602,12.202990097082083,5.260033827085485,0.30437528571733374,0.9455914168384915,0.29267112573262344,0.9299275997979294,0.2129868022255907,1.0065550213651764
1.2202440488097621,12.022996961232808,5.354756911568637,0.3621698977850753,1.051818248817903,0.25264247401503404,0.8785340768774293,0.37407251627065663,0.9687146628339777
1.240248049609922,12.002219954457479,5.274229011782996,0.3919943275723214,0.8392907745424886,0.27712654160567485,1.1194870461218505,0.20417892138738242,1.032530979526875
1.260252050410082,12.186130023550477,5.284341453629215,0.19561433670463096,1.1183222491899052,0.18848649762539688,1.0563090915923872,0.11975919200495272,1.034376447530407
1.280256051210242,12.061489429560918,5.312019619608389,0.5486366205356935,1.0138196188576016,0.10788877698657218,0.9033944493532498,0.05524970401228718,0.946731558025459
1.3002600520104022,12.21907011221893,5.317346378780823,0.3750804733770122,1.0085670913268636,0.24316745104500193,1.0215812557949262,0.2710534052219651,0.7182087889504696
1.3202640528105622,12.124364420718486,5.261037798782362,0.22563382705808863,0.8253625781791384,0.21958729427572235,1.0000424208966887,0.3251834584524227,1.1111791079134279
1.340268053610722,12.037354958104702,5.290693571863082,0.3105440801235258,1.0523527027627335,0.2749296950094166,0.9495577099026322,0.3200917715010793,0.9395902241540783
1.3602720544108822,12.063927880097955,5.266977802094014,0.4217159243673272,0.9306467990712458,0.2779602491880683,0.9408810960523826,0.4451840481549486,1.0358505399358278
1.3802760552110422,12.161998120523776,5.28776101570923,0.39593026123242736,0.8624742750839205,0.2071556370479174,0.9497848533443582,0.2900652269724048,0.9481714719816208
1.4002800560112023,12.248679019552743,5.31795549032003,0.4979395302832577,0.9875251693114417,0.21331525516796668,1.2874680723104184,0.1945788994317056,0.9041197654804457
1.4202840568113624,12.02077721324889,5.3116127063506395,0.09257486729711373,0.8809844209288994,0.3108900091178225,1.0354889749188199,0.2700292792549675,0.9086568164797734
1.4402880576115225,12.199991966728192,5.3026491910135585,0.5756415967789178,0.922340041955237,0.13320300473076113,1.020791009987611,0.4502459241559523,0.996527817327135
1.4602920584116823,12.269722547858358,5.339828289640963,0.37900082500156174,0.7830929933999583,0.3097706661824756,1.0906650630756762,0.1773869428566947,1.0454557466474594
1.4802960592118424,12.125532423070636,5.3861968287515385,0.4564920181396446,0.7808381953590338,0.5193699131842553,1.0226512620561952,0.2854572928266016,0.8179840905324705
1.5003000600120024,11.964939927580037,5.214284546247361,0.4647822869732959,0.9482094251248235,0.33099625056117105,0.9884956626065202,0.5615034523177562,0.9042104935608632
1.5203040608121625,12.254055614614098,5.295756719373949,0.49990017890328653,0.8336904764857928,0.325248965458431,0.7088583425893645,0.4228755735364474,0.9122368490601369
1.5403080616123226,12.282095937871851,5.2917983141895215,0.4615706829122939,0.6755066555264646,0.38106001019568225,1.0229300970024469,0.2823564364453087,0.7959496058157418
1.5603120624124827,12.079879015710866,5.291443989087516,0.4779761996751225,1.0176173218825375,0.36301221544530915,0.844035244550686,0.23180574868724396,0.9347060318962995
1.5803160632126425,12.227711829981637,5.264738363348501,0.3609324099551323,0.9250924348251848,0.4211134979989388,1.0455178285314064,0.5007837581698829,0.944768706829233
1.6003200640128026,12.344268406501635,5.301079433392883,0.5934380466548502,0.8272263854653416,0.39992239315033207,0.9885916962069512,0.3393480178954215,1.0600121477441298
1.6203240648129626,12.197973741618995,5.279844954577406,0.5026582455693015,0.7936738055683704,0.46622217062386184,0.8522170281866119,0.3120493392550442,0.9063780428590964
1.6403280656131227,12.099126870946796,5.222054540067887,0.3948325570470034,0.8085859569022164,0.311808683013921,0.9857087257050083,0.4041058795122814,1.144714622719847
1.6603320664132828,12.179002705094888,5.3228128261142515,0.5838573648934321,0.7413982759813489,0.45610529082652657,0.8411003454841568,0.4615922176543339,1.0133536982360414
1.6803360672134429,12.056315576585433,5.294577727489919,0.4649273386358189,0.8700993322411887,0.25951205632343805,0.966595669601427,0.39844788957406513,0.9909625654721722
1.7003400680136027,12.111754889351351,5.3541115592513195,0.6167744085667393,0.9000626088795748,0.3130619942271229,0.9812720662475612,0.28415221572567284,1.0284931191742972
1.7203440688137628,12.239135972618039,5.292552807828514,0.4707531237903602,0.8588009311940862,0.43042348605758596,0.9240477546053649,0.4428507318260746,1.0736811766013599
1.7403480696139229,12.01383923481564,5.230192778936458,0.5804893421028312,0.699901589220362,0.2856104849204528,0.9711254598936645,0.2741960269900187,0.9812787503853122
1.760352070414083,12.217761268418343,5.287010943035839,0.48839662983019105,0.8848440760345281,0.3496124121065331,1.0479479241326193,0.2749431795114773,0.9573360594168414
1.780356071214243,12.24076328391149,5.337254866326469,0.79184968791093,0.9845393144548671,0.28793738062525215,1.0965175779176382,0.41448079881952016,0.9961005124866412
1.800360072014403,12.176761789096405,5.298445429480425,0.6634507236396484,0.8873872692749009,0.37152353089264023,0.859111656516213,0.25359416642464916,1.0214318838166114
1.820364072814563,12.126354632509146,5.293383369392644,0.5616982041154106,0.7931734853085155,0.23370259158284368,0.9933451841181585,0.45266988189070567,0.9185396397884713
1.840368073614723,12.13586252298433,5.296100841165245,0.5765622200674254,0.7410919195783016,0.26670981054469634,0.7984434596761457,0.2344899459099602,0.8339272959367754
1.860372074414883,12.17974126450784,5.327274264229954,0.3813554639563567,0.7810596657867951,0.39536601479796063,0.9648092671344518,0.4056816048039793,1.1289251854620783
1.8803760752150431,12.197209330972358,5.303149573976085,0.641243041027553,0.9213828514056271,0.43239231114765875,1.0121120084868602,0.3254950767559937,0.799961165921049
1.9003800760152032,12.159634072574416,5.307676264210249,0.37605735032911947,0.9143637299532197,0.46532835531178274,0.8672306463254832,0.1738788012138438,0.9771810684374674
1.9203840768153633,12.077634336077024,5.229738603673954,0.7181498351480695,0.8972395971650524,0.4016998436705569,0.9043115018350459,0.3952418157760091,1.00807873866642
1.9403880776155231,12.033186389668337,5.2750099833275845,0.37208374628589413,0.87567271771536,0.42233065288423943,0.9885322310028298,0.38166143655822654,1.04514369520546
1.9603920784156832,12.12014128553826,5.309445401421905,0.37820227373626925,0.8230237358214472,0.4855134541586845,1.1012997354066778,0.2956162347888888,1.1363666811029445
1.9803960792158433,12.275812711471918,5.288311873286799,0.5798120711200695,0.7242790713439342,0.32775545137914996,0.8314653399755171,0.3750410660779613,0.9679765960787056
2.000400080016003,12.345085633890235,5.363264532272405,0.7109351034540422,0.8548163471749624,0.20002940149751913,1.0459921055983588,0.5435688277101713,0.7792959682523314
2.020404080816163,12.104034202593708,5.268404237600875,0.6604026229831538,0.8587798231987174,0.37243369256382086,0.9528281405263406,0.371926608259513,0.9117923284400017
2.0404080816163233,12.255050395769798,5.295383215336886,0.7286206593803612,0.8024885648820593,0.31679497505723386,0.9836049590878189,0.3700151934859253,1.010582658530047
2.0604120824164833,12.329589791944073,5.312327429278363,0.5358429477747434,0.7097854152709135,0.4739100635713377,0.8527813509045876,0.4715434598361184,1.080007024691334
2.0804160832166434,12.272525425033225,5.280207203794792,0.7030564923720745,0.7599053437566021,0.40546994523280977,0.9209610576083213,0.4491586473751843,1.0811816389688755
2.1004200840168035,12.229005494776095,5.308515297869544,0.6198481215942208,0.8426116980745103,0.36193716842817225,0.9480036955921268,0.518352717012537,1.0878055659661165
2.1204240848169635,12.092254700604789,5.277569939541672,0.5601942471351117,0.6639578264239522,0.36962193286943584,0.9479812824286064,0.5373944811747264,0.9269639495078835
2.1404280856171236,12.202721707445296,5.222168980550646,0.5809417485381172,0.7233795051289409,0.5696565494401811,0.9240416451245516,0.4290391243836423,0.9951286672739418
2.1604320864172837,12.240737471933219,5.318887087102737,0.7675043559970323,0.6212712911066036,0.3669855525133768,1.0750251792375995,0.3614335909950067,0.9935729766330993
2.1804360872174438,12.163798811351935,5.277775220108059,0.7978606265550893,0.7925528535227359,0.5228451895626666,0.970917378699733,0.4906531153826926,0.979172042130066
2.200440088017604,12.119915064080601,5.303744352452057,0.7564495597127012,0.8086950319611851,0.3289353969926901,0.6934348050310147,0.41113563629230077,0.806514209446745
2.2204440888177635,12.297012565494608,5.251799340287259,0.5087157013185077,0.8635371478121235,0.4600771539822752,0.8962753025516228,0.3455166134690533,0.9225619679377841
2.2404480896179235,12.115325697273642,5.349410494412133,0.638705858315845,0.9171255243652475,0.49709535312960773,1.0475141895215636,0.38914234719889634,0.6814855205160399
2.2604520904180836,12.05645775491212,5.27341566530983,0.5978133729041916,0.8268736909921489,0.3865263008706862,0.8897528555007196,0.3465065454266071,0.8200879150546734
2.2804560912182437,12.173726199446666,5.3284391217911615,0.6634225196985258,0.7349982032559145,0.5139074991915717,0.9952420392908439,0.3443705229449761,0.9463489540534831
2.3004600920184037,12.159742894970929,5.2532738217025425,0.7238427949540716,0.5757733829623194,0.502237674241167,0.991382564494748,0.407216651167481,1.0254273178654068
2.320464092818564,12.328712690806805,5.25957079303186,0.5931879836415384,0.7417513777567276,0.4043027969896694,1.058112157781728,0.5031801554640603,0.875263307622381
2.340468093618724,12.278177070697065,5.320273868285793,0.6436715969033441,0.7413174037495509,0.39641704226223573,0.98969770442019,0.5950836653890631,0.949310117429914
2.360472094418884,12.28431667765892,5.287237731687473,0.8233776044516892,0.7571353013075812,0.4718492976365077,0.8848296858306164,0.36661124240811355,0.9426686508381075
2.380476095219044,12.262696806276567,5.300002050669778,0.6261611608049514,0.7787970907829039,0.2864010903192669,0.8261493886296051,0.44723984159148217,0.8460382971837861
2.400480096019204,12.361603397164757,5.195729015641385,0.5848334516453871,0.6115188689639748,0.41162865106710744,0.9527210449741104,0.468431441103266,1.1023732302049465
2.420484096819364,12.34981922961491,5.201583153631875,0.5844984305846211,0.6930569745543183,0.42615034743037455,0.7854413156966868,0.4883470684836616,0.86523670788394
2.4404880976195242,12.280189435174776,5.282785892609292,0.4979063193224179,0.9040585167683526,0.5028575648210962,0.8700685155829045,0.18125076481553887,1.112198530934974
2.460492098419684,12.221658536555879,5.342183775790105,0.7002103581932081,0.8010235450973414,0.49792376016968654,0.9584009428869973,0.5309905157455015,1.0916024678305067
2.480496099219844,12.261500929871133,5.298377606075336,0.610350097403442,0.7674869252516908,0.4704311114231504,0.780574098795922,0.5950070775079732,0.9718648346764133
2.500500100020004,12.259578342602778,5.312732788570523,0.6187874175675033,0.7335784229317144,0.5756242039333395,0.9585815590906418,0.6670144201181258,0.8385033497263209
2.520504100820164,11.962293465235232,5.299681991028912,0.6132081674934555,0.7470773685806846,0.3764456571579664,0.8453856317987989,0.4149185979366441,1.0967115795613258
2.540508101620324,12.18426069334983,5.294302223634605,0.6747877572539378,0.6788876868520066,0.6406733158267359,0.9460366671166732,0.5423767437178808,0.8709169435345734
2.560512102420484,12.256580279870162,5.299709546055315,0.6820750945384337,0.822013895581836,0.6662546049325253,0.8180287334965364,0.6366236742577641,0.9803659548945807
2.5805161032206443,12.285723493396114,5.320324783641873,0.7464530976978943,0.7167284178624358,0.5614505620707988,1.122700290000516,0.5382221837734171,0.9454443028882731
2.6005201040208044,12.107761131602803,5.262039292803751,0.557027194549162,0.775251876442074,0.5976800903867948,0.7613171225033218,0.5673738665166457,0.8805448227864733
2.6205241048209644,12.276650274945494,5.387509924202842,0.7513973246928682,0.7442822241059684,0.33771151553020246,0.8894369874230255,0.4614722455153074,0.9045725462111331
2.6405281056211245,12.246521327991942,5.330943641463138,0.6571104717163452,0.5262219356210918,0.35734933417037096,0.8865630353553242,0.31229339324767413,1.025309107607304
2.6605321064212846,12.229266373986999,5.309689351563294,0.4930247693259253,0.8437705714187246,0.5512013074395412,0.6223356100731543,0.5588950023081966,1.006418051264817
2.680536107221444,12.348454029463783,5.280944823844122,0.8135742686748646,0.6979548076296085,0.6583230514374229,0.8902452043378912,0.7788713422046625,0.9315407570240134
2.7005401080216043,12.366181414225682,5.263767250314837,0.7551569523177226,0.7252446999401756,0.45413722134510914,0.9237669177282547,0.4800978176738631,0.8704871205992674
2.7205441088217643,12.198588368558887,5.311046961076827,0.7914684645983323,0.6269694187619047,0.5659839190232788,1.0585765605467476,0.4935378307217351,0.9560616653826276
2.7405481096219244,12.330377682914918,5.347068198522259,0.8640230268227159,0.5433118687047997,0.4873211270180422,0.8255416514140153,0.7015815350008718,1.052762798538569
2.7605521104220845,12.232462240721492,5.29231556396065,0.7073157060182195,0.4352656358275413,0.5913332624318158,1.0059023680611832,0.447895140029581,0.8294870834968089
2.7805561112222446,12.356855552063482,5.2614615828000995,0.9342591123357964,0.687916392643963,0.49937479048672134,0.8016990498652476,0.46248972705623115,0.8955052891659334
2.8005601120224046,12.275994781271708,5.302959972499425,0.7044575762010075,0.6622210066853209,0.479586766550299,0.8773355634746883,0.6144884121122286,0.9111640148532216
2.8205641128225647,12.23175505734013,5.247523763618368,0.7874374426170812,0.8075943039654794,0.5372026221129731,0.6985875592284759,0.6839205128293532,0.9805398702589719
2.8405681136227248,12.08706299585003,5.294604783869979,0.6645803730537335,0.6629034920848846,0.6589141125796647,0.9447498210514339,0.5628120362992275,1.0987079067141419
2.860572114422885,12.232149271331643,5.205327267074443,0.6810306949588597,0.754986967353639,0.6741527978328775,0.6566157534316694,0.6186695824747237,0.8624348860899342
2.880576115223045,12.377237756946045,5.290970254213985,0.8066936503912499,0.6609099571836557,0.5224082875956243,0.6972705195198493,0.42237768302903755,0.9807404493272366
2.900580116023205,12.507666164191127,5.298581117395398,0.7386534758589546,0.6010116911876635,0.6039616533595452,0.9967630814739291,0.7037269629048455,1.1115299767523927
2.9205841168233646,12.215860875391506,5.283848962491815,0.8833786396712205,0.7143584279616013,0.4815450615241351,0.8829719140595517,0.3927384634570757,0.8872954832339993
2.9405881176235247,12.266448193776093,5.320658145555023,0.8590397637536273,0.562182618156728,0.43319448423838364,0.7703896573959929,0.5004481852201267,0.8627744464614193
2.9605921184236847,12.19971206103889,5.1987517766872,0.6749429812219851,0.6483365978418505,0.5023653545570884,0.764855944056013,0.5468813235733284,1.106362495146011
2.980596119223845,12.37512256300591,5.271066418769675,0.7893814115514314,0.526517493974735,0.6292548452990723,0.8484406907494296,0.5129707883923421,0.952869102048281
3.000600120024005,12.469554725915454,5.229107931442754,0.7742021324673629,0.5119639576729139,0.4662253366814568,0.9994847015688582,0.433413944945801,0.9466770562268139
3.020604120824165,12.267204996245106,5.293019190533787,0.6168685080763898,0.6908204256606032,0.6112757113511058,0.8657487852626982,0.5967599289615765,1.0774411643921282
3.040608121624325,12.239475845754601,5.293621042544894,0.6587922426893518,0.6348125858989534,0.564729383171526,0.9757745796644731,0.4270649108638608,1.003027096766751
3.060612122424485,12.2574966996861,5.2492623610510885,0.9321189369145635,0.6208564100188009,0.44498362102795297,0.7516256455180176,0.5627573289074722,0.8626326536991209
3.080616123224645,12.130693421874557,5.188282362362058,0.734155398425473,0.6276641834459756,0.519765323510748,0.7825018439179223,0.3895329382854449,0.9298669387062892
3.1006201240248052,12.336077924951057,5.310710443951996,0.8332865799303281,0.408221270541401,0.40570218748074416,0.7588876831551564,0.7045304589920933,0.9557680510649224
3.1206241248249653,12.322468624104578,5.252526509889336,0.7643767174755874,0.6731096764579793,0.4767666484061997,0.773580498067907,0.6911236718385019,1.0375888798219446
3.1406281256251254,12.170678525640263,5.1696943112587865,0.6960542416812612,0.5605208400036676,0.49828589342346796,0.9238909756554985,0.7038361232910326,0.912155548792769
3.160632126425285,12.30851583176648,5.237029289994161,0.7203669460679619,0.4181352250145688,0.6203895832811706,0.9193409012775096,0.46440271840215364,1.099381132364163
3.180636127225445,12.166417780128363,5.31893033311645,0.8149958298501582,0.551624585695009,0.5490700666518608,0.7204452397692542,0.6872844572601233,0.9416531216685801
3.200640128025605,12.399583808653993,5.2499710488153655,0.8410343644592035,0.4163731766754666,0.750895645618765,0.7762810569392341,0.6146344185477975,0.9163069102491891
3.2206441288257652,12.232541593327392,5.145400964368991,1.0277639742920317,0.6524558130514473,0.5798594536204877,0.7028501241184191,0.5857258121885529,1.0405209806835816
3.2406481296259253,12.275217033254739,5.2517645127084105,0.7716028984460758,0.46606588013222316,0.6152788186212427,0.9299020179810946,0.5915211238968516,0.9751382309871937
3.2606521304260854,12.232576683721529,5.244012695253204,1.0320656554207044,0.5453843884514539,0.5209721662516325,1.0623790413064425,0.662730378433222,0.8711694518285734
3.2806561312262454,12.301665457700006,5.239146025282502,0.9851033878143658,0.4311440875873501,0.5738989182432301,0.8093338133197691,0.724547248151689,1.0862664169228702
3.3006601320264055,12.156537081649375,5.20489423901343,0.9967430998499307,0.5968976301508113,0.6990584098617432,0.7565127253743325,0.553525072616323,0.9417981527053852
3.3206641328265656,12.33498260119931,5.294259972416821,0.8231053325384806,0.6186593875533796,0.7374721908523549,0.837440014643455,0.5516105428743308,0.7676766381031468
3.3406681336267257,12.359838466536084,5.26581271735254,0.8934099104520908,0.4875537677375826,0.6842250703534803,0.6601814655571387,0.6579215467514421,0.7770784187858353
3.3606721344268857,12.410119873969931,5.2621744046703185,0.7442189005564761,0.6651864428532028,0.6018975706612711,1.061719634420826,0.507226937785603,0.8180742354712506
3.3806761352270454,12.268981838781942,5.279591595381805,0.7882173082846267,0.5693875994906856,0.5916797266193728,0.8264897869418717,0.44638838105257983,0.8765616383173299
3.4006801360272054,12.395363385249391,5.326881309100076,0.8634262529487746,0.5449864439320825,0.6965725945394189,0.680850326739839,0.6558093564424277,0.8831208100705963
3.4206841368273655,12.226714653128115,5.259758981001158,0.9261851338959977,0.6606894081207092,0.6821913575178443,0.7351118717159716,0.6330887818926839,1.1269066891805628
3.4406881376275256,12.461740142266361,5.191337873169561,0.5603945479963581,0.3267241457647159,0.6451558362673384,0.825158773013855,0.44621566070806046,0.9094504334949441
3.4606921384276856,12.458488125112714,5.251245509549617,0.9197883148115189,0.5786207127067323,0.5234259929395674,0.7466262084196047,0.6184582501282491,0.8268960084644417
3.4806961392278457,12.413490708259742,5.2574070476282015,0.9545037259350331,0.44355094645102333,0.41522796392601996,0.8832766029923704,0.6248644322517782,0.9901841118663985
3.500700140028006,12.410711326948135,5.24726670646394,0.7528648974507754,0.45208499856872686,0.8443886099649159,0.6827069150367682,0.5536863898481454,1.0371417571545216
3.520704140828166,12.375246678628354,5.237861791318088,0.7623887849682297,0.4917750377215901,0.629995295761066,0.8586401502985284,0.7245302878143871,0.9928487177959261
3.540708141628326,12.460322604994367,5.247438286033835,0.7670130614498948,0.37227430906653725,0.8264003747338352,0.8485796177144712,0.8120655870937828,1.1951640898124807
3.560712142428486,12.15691186829597,5.165188442261501,0.9123318213767329,0.6691343508578053,0.49721525167863057,0.8456067926378892,0.7080622690355443,1.0055786851670563
3.580716143228646,12.393453777888336,5.307151181486451,0.8565113073574402,0.6716429262644119,0.5371018131593888,0.7875188467911187,0.5530420240334715,0.9014131652869851
3.600720144028806,12.313922561918783,5.30354138957668,0.8191526680402463,0.39014817156393955,0.6347837689128979,0.7444941934839726,0.7789466167449095,0.9440303653756563
3.6207241448289658,12.144971510267045,5.337480825750315,0.8892995217151739,0.3861922755234036,0.48799878449677203,0.7735139013682938,0.7376598650950502,0.9493233781906435
3.640728145629126,12.300601376484074,5.249097198240232,0.7801833864700362,0.49972472958042174,0.4728428089418898,0.7511642587761718,0.722654454775466,0.7932511713082308
3.660732146429286,12.253888755868653,5.248999695452362,0.8245223829267772,0.5636776698288366,0.7088474705864491,0.7909948101304822,0.4239970113458915,0.9729542628925845
3.680736147229446,12.215892493057511,5.266493839028505,1.1159775643405663,0.3157288279792857,0.613676624081594,0.6868780888144219,0.7458810954514294,0.8451124284913978
3.700740148029606,12.274606539336608,5.291494363835595,0.864013042840669,0.4942641777204863,0.748724925953149,0.4943976567640651,0.6618724886946885,1.0251015823972396
3.720744148829766,12.106434095977841,5.266883572737868,0.8726324652400026,0.443313053037258,0.549500904358644,0.8004696723453412,0.6667691799785057,0.8134790332930038
3.740748149629926,12.409007364317672,5.211206083373527,0.9799294120473461,0.47317415697717247,0.6946214140970637,0.7989418401408914,0.5993175310102903,0.9216066132558938
3.7607521504300863,12.422834302411816,5.219506064779187,0.8661690183384577,0.48333248605279366,0.587747645378603,0.7991262741456576,0.7422812671642455,0.8150803207824165
3.7807561512302463,12.233258272236673,5.23057018766787,0.7679023448960157,0.40574960599508697,0.8307758191402378,0.8247792697552229,0.7216174344125111,0.8721729965559121
3.8007601520304064,12.345579678160634,5.194587131434703,0.8986831083886154,0.5487724276762507,0.49460809197889377,0.5855749320003083,0.6300766078372961,0.992684123331007
3.8207641528305665,12.306363574570975,5.234286382550523,0.9318225802584477,0.26177418861663015,0.5394376968156788,0.6083147399781222,0.7512901476120758,0.9089136938873699
3.8407681536307265,12.374363717743348,5.215880113481916,0.8213867588667678,0.44070697342733095,0.8317112450588336,0.7336522588321698,0.8740985822002301,0.8248039790823093
3.860772154430886,12.309139897261131,5.201185595128806,1.0664706241574613,0.46304970917854626,0.6599950556953289,0.6987398873287153,0.9000262711126822,0.9310975760127694
3.8807761552310462,12.221603356150549,5.270839975906,1.0107957721792418,0.29585704333271734,0.6644438231357472,0.6787182897313508,0.718037535270702,0.951743794943452
3.9007801560312063,12.329739343347498,5.242734344667525,0.8989714574782811,0.3295399708079427,0.7114663200581138,0.763220568147331,0.6944209122057938,1.0698635609623863
3.9207841568313664,12.540339185552943,5.325501516333488,0.68430848426673,0.433702120541367,0.6672118909738096,0.6836205142658547,0.6175302987518133,0.9999456087496548
3.9407881576315265,12.516241167613666,5.206053479097423,0.8298642011300269,0.3326535430341861,0.7241824511009023,0.6467870480041973,0.6331570659222945,0.9460298690353481
3.9607921584316865,12.37598664130329,5.298626294839784,1.133343827957809,0.3175412411541486,0.7296673542184284,0.5501538530891275,0.6864119093777304,1.0221640132362104
3.9807961592318466,12.441530628551472,5.207070443297146,0.9331464377806538,0.3918695277376218,0.8364251743129323,0.7073361901062398,0.7397352642012072,0.8810964831646348
4.000800160032006,12.264446445539651,5.231434861080053,0.8241668534832023,0.44893967773255516,0.8802770749544869,0.7906923039665863,0.7853651295533264,0.8536449080594871
4.020804160832166,12.250353131256544,5.254969189831265,0.8260968930051084,0.27446608707621306,0.7066644298016036,0.696113395037554,0.5359521380699735,0.9346768653595922
4.040808161632326,12.311985754217032,5.251394783560382,0.97052760615401,0.3984342063026641,0.7445135840986871,0.5148703284169192,0.7771380209965775,0.9658379709782028
4.060812162432486,12.281407205904436,5.287571898967162,1.1169132364804348,0.2267464175179164,0.6640845122224678,0.6258643140914903,0.7092269877211592,0.9454724065179477
4.0808161632326465,12.2859587311921,5.290629463233054,0.869435132159803,0.5343799105554208,0.6923537183899107,0.7150290087160368,0.7599646813392701,1.0087456508573047
4.100820164032807,12.312848119208601,5.288828330399196,1.1145038065810189,0.3598166485234217,0.5849734602995725,0.5808636972939443,0.7776504834024622,1.0019623148449839
4.120824164832967,12.352665306340164,5.235760512932633,1.0681407787386412,0.373271466818128,0.7584432438549435,0.6286170538346137,0.5991701996607063,1.1077195334134968
4.140828165633127,12.405480259113812,5.176947119680908,0.8999967359446768,0.142646936637753,0.5715098972982953,0.7656446255426743,0.6634971159657381,0.8632821789705785
4.160832166433287,12.505054543355532,5.205905679733841,0.9663053189729609,0.3823140529811615,0.8218570412642504,0.6832569651192166,0.9020841031976923,0.9176483643176157
4.180836167233447,12.418056817057396,5.221520299170653,0.9799911900827113,0.32167204179966324,0.6949647243396906,0.6807385376235053,0.5932707665433934,0.9673334736510633
4.200840168033607,12.321622639680703,5.204775531788531,1.06954552287242,0.23661629353168717,0.7848511830550983,0.7405666714373582,0.76079279749044,0.7838621279646556
4.220844168833767,12.355390096378484,5.345633143201998,1.0948933047708012,0.326597733995493,0.9045533681417565,0.6984827305653752,0.7669720355917796,0.8245776551893746
4.240848169633927,12.432000037363952,5.201596575046342,1.015295049430029,0.3027812591410066,0.8177264057031579,0.6881928198561388,0.7144249501326521,0.8624454467122187
4.260852170434087,12.382094438261166,5.286119953943716,0.8974146701536987,0.28790987576859495,0.6854339610582705,0.5480234483951664,0.7235251439244129,0.9510179885389751
4.280856171234247,12.436023429172586,5.274244101229852,0.9331117546799027,0.3341801921421368,0.7248959977820565,0.6229417666178004,0.8215994794719311,0.8403476947834416
4.300860172034407,12.32410475624353,5.215001147643591,1.0868534465749786,0.11805284539353822,0.598850919377969,0.42706773514936935,0.8620163234496998,0.9379088718033478
4.320864172834567,12.180087821166754,5.147131670335119,0.9203530647394924,0.21091512381509747,0.6891417783147006,0.6690495205088165,0.7887919711203096,0.9028474364588246
4.340868173634727,12.48580757826935,5.275817771869361,0.8158673196681165,0.2691141798933504,0.6135187118127317,0.4781031479673788,1.0620144216953322,0.7291306913542082
4.3608721744348875,12.492728105770974,5.3095769810712765,0.951546166587051,0.31191146271173514,0.8624434382008935,0.7457859241722304,0.6436084162617728,0.8399421236869642
4.380876175235048,12.333143036487398,5.218335784680619,1.0053415406519357,0.05451113420698192,0.7096204363634322,0.6688714784278936,0.7616505604781257,0.9916891539287074
4.400880176035208,12.261590562210815,5.243459972303806,1.093736611174203,0.15972241021309688,0.8299038396931834,0.6216585370167921,0.8507349203077559,0.8789167788058638
4.420884176835368,12.249236633392174,5.107025121208651,1.1218776508939656,0.1475250458082373,0.6614065241663916,0.6219789972149629,0.6369420377874682,0.8442694444596748
4.440888177635527,12.332888449212092,5.177550357331978,1.0190270855001367,0.37677806241505274,0.8300159427759238,0.6414845692085904,0.6453251421059486,0.9815794724307982
4.460892178435687,12.615926756019203,5.1995739711514855,1.0180863164022849,0.14732140479500594,0.7284530663790152,0.7380058801171152,0.7355902425897193,0.9781439457706986
4.480896179235847,12.222064026279076,5.369739566404776,1.0522691368891495,0.13707830624492887,0.7368139712782902,0.6666066157249826,0.8008482218634039,0.8634877365843238
4.500900180036007,12.456911848334684,5.256577281911027,0.9882052567197233,0.26779587436665714,0.7657313414789472,0.5419627902266104,0.6548638109073462,0.8140583151383465
4.520904180836167,12.268397258096071,5.193227962094245,0.9319941114258423,0.32536040248778286,0.8706755502478121,0.7027423636844549,0.7220482883641098,0.7556309451202146
4.540908181636327,12.530990302545922,5.15235232843383,1.000257721237726,0.05935754088900014,0.817178025748598,0.46690609573428554,0.7767982890571256,0.9032421293757786
4.560912182436487,12.395453506676382,5.234390581785404,1.1031171697274826,0.1441750987068724,0.773613466191413,0.6272806820587443,0.8445637172061347,0.7989157700760608
4.580916183236647,12.322790127909089,5.196883236297376,1.0100557651102693,0.09329598677777207,1.0511322908335097,0.5797779966753628,0.839754694716944,0.8431662096090818
4.6009201840368075,12.51141017594389,5.231655007175972,1.035979967037239,0.24552975205951522,0.9289912112538983,0.6870945101400292,0.7812812025607798,0.8670167688529741
4.6209241848369675,12.480031025917203,5.278917874464174,0.9474762080998871,0.2399191044023052,0.7746886097596273,0.6317590841818961,0.7009232915293667,0.6837410858735657
4.640928185637128,12.296514736494958,5.306168686144805,1.1004952257714702,0.36194204770301364,0.8457458131145165,0.6477172755573278,0.5606005450927413,0.8515657869355874
4.660932186437288,12.211193127040017,5.166248858031584,1.1100676333084887,0.303766451355439,0.8749715898954411,0.3858826872917931,0.837113306588629,0.7973979128363771
4.680936187237448,12.564102934532386,5.180748061989091,0.9806751437916784,0.23894737386860318,0.8628252673904188,0.535728277655439,0.9316679051075101,0.8928905067340752
4.700940188037608,12.422144142171204,5.290070429610173,1.1039760692118634,0.1171657138104473,0.7778704104439257,0.6746640217876356,0.7323094045814095,0.8305626639983468
4.720944188837768,12.36355388874445,5.198001593747906,1.1763549978998167,-0.00932657239408824,0.7544887370818019,0.6737569226969249,0.9214382494696309,0.8633535420006311
4.740948189637928,12.424347790136972,5.32170021796117,0.8937136626430969,0.13809283531417935,0.9254878985415103,0.647906804524698,0.7766175096141258,0.8132738419325429
4.760952190438088,12.399816425511679,5.1898338189802455,1.018161636946459,0.10810990982703379,0.8344970807274821,0.6641816230329243,0.7509962035663047,0.9093497069530706
4.780956191238248,12.389672048623785,5.281915335890441,0.9228845843386145,0.1300997614047987,0.7694902235598832,0.5861341706169682,0.8744883021653562,0.9811141746097837
4.800960192038408,12.351847411383138,5.298428848451705,1.0007798484593102,0.15752259153498208,0.9522776728755113,0.7607502815744036,0.6685545945098927,1.034451372295768
4.820964192838568,12.575337034533911,5.16088190311648,0.9264160833253497,0.05669667434632607,0.7484412714910372,0.6770185706307541,0.7787046200777239,0.8482023352615157
4.840968193638728,12.436462406770122,5.28922604488192,1.063365504385436,0.3425409102017956,0.7786381525656357,0.36257475110962056,0.73504886635584,0.9246549816623473
4.860972194438888,12.347616987180073,5.1858148991261395,1.1264287954379075,0.06424896943507924,0.7404029498261424,0.34117302283977524,0.8716304136387719,1.0114413075325397
4.8809761952390485,12.303805840469925,5.238974168079921,0.9661253070306065,0.2585616751275128,0.768369026519146,0.5782549494080708,0.9534510135664879,0.9087606694544131
4.900980196039208,12.355701166288048,5.187308933116147,0.9146082551681349,0.1741688422286922,0.9479590794437491,0.7440806356140127,1.0089467955830058,0.7699160608189425
4.920984196839368,12.366846259626476,5.1919631167515075,0.9949300035765949,0.14740261755818188,0.9477457918698536,0.6434626814109847,0.8865489862358056,1.0830676739217515
4.940988197639528,12.439935889998663,5.31124939356595,0.9507542227601382,0.16997951090393093,0.7491366194869292,0.6646326605651754,0.6773207096434108,0.9201442429743767
4.960992198439688,12.446375869944662,5.284230213551691,0.9559936135558693,0.17954293561717372,0.7140321228482414,0.6906258424477443,0.8228160104920967,0.8358408427673264
4.980996199239848,12.59434001611855,5.276280720758307,1.099100280611678,-0.04905412435142581,0.8526792208512304,0.6664667572072108,0.8694978331410517,0.960070906530686
5.001000200040008,12.465172493469034,5.212705640613926,0.8390576442215351,-0.0362749655231389,0.7479657853979484,0.5466799252136886,0.8817618996841007,0.9863156768792116
5.021004200840168,12.33486358645216,5.230278282714325,1.1816672953540865,0.21419433333719315,0.9450024825900374,0.37980589190308855,0.8957140300904695,1.0240013824202967
5.041008201640328,12.441801990452097,5.208758182029862,0.9252051896429414,0.09649001755931391,0.9630691861607212,0.38757153355904894,0.8007307579529259,0.7315983120249339
5.061012202440488,12.357467449020625,5.198132994606477,1.1901612030944095,0.026383833028352722,0.8573616949987714,0.5668194637339247,0.6199926609116306,0.8947241667692754
5.081016203240648,12.249261599559745,5.303279342725248,0.9937153284663118,0.06353096740653573,0.7401803968180429,0.4653756652555627,0.781174505132823,0.9977943627126175
5.101020204040808,12.562317596426325,5.165205718140386,1.0228371231891737,0.12281257604245074,0.978930317459221,0.4890927997604224,0.7698417060525073,0.8584830064369984
5.121024204840968,12.386653671543339,5.266504608492615,0.9298118550568211,-0.058452830707258624,0.9371755706503728,0.49281141197845957,0.9699272340575371,0.9033202219100606
5.1410282056411285,12.472511317411964,5.230413826779332,0.9593221640840481,0.013402418402339987,0.8474583018079812,0.43870530975676686,0.8613860127249178,0.8135181691059434
5.161032206441289,12.54424077525925,5.277200222058971,1.007713612496001,0.04653297508112274,0.8305479013796727,0.7243028600105424,0.9163894956649229,0.7613521293042481
5.181036207241449,12.372773251263686,5.1904715501309475,1.1424503050285448,-0.09497197451644804,0.9523410612136138,0.21715367216606318,0.9113444578724754,0.9824470165859835
5.201040208041609,12.239121372976957,5.250849561127623,0.9621845124401049,-0.055860483353214065,0.7027956641746601,0.6387743255387627,1.0795255422382095,0.944274623132519
5.221044208841769,12.33480664348674,5.124292493728648,0.9861167233283928,-0.008360499400337357,0.9794749838284701,0.44585648994491245,0.8185480166215912,0.76346742121187
5.241048209641929,12.385116540385832,5.241522712042827,0.9544648902910822,-0.08116926286715383,0.9183199183874435,0.5308850592085412,0.7723268860653799,1.190291589247646
5.261052210442089,12.535335286851414,5.20175735901666,1.053407383928773,0.12783885890684482,0.8958316561190558,0.5444583027919219,0.9906578877389646,0.7971548982684807
5.281056211242249,12.589017920531933,5.30406117331753,0.912556674667493,0.20730130968584054,1.011105836702936,0.5955593107046271,0.9531271530009975,0.9828517659100653
5.301060212042409,12.388076374775286,5.119734666841799,0.9836661866397594,-0.023891638000346223,0.8390395076778838,0.6173703920815303,1.0567235347825488,0.8041287441155504
5.321064212842569,12.49372255710095,5.340125867990769,1.2014169096683198,-0.14053842354644164,0.75766211408097,0.7713798643346366,0.9121336690240315,0.8504927296111414
5.341068213642729,12.507570343821335,5.172572502047073,1.0967363153013507,0.09218623570943513,0.889955027927209,0.41344075665507635,1.0033882659456521,0.8657000362186127
5.361072214442888,12.418557443874242,5.222535087837879,1.0041122519160182,0.00271064164079899,0.89033268229523,0.5197294771299196,0.9562680423410286,0.7526070447598555
5.3810762152430485,12.431655158151163,5.315336723327616,0.9588240589976397,0.08979470760895084,0.7478047712645393,0.3804811683797738,0.915729828558418,0.7938961784081637
5.4010802160432085,12.60399381110738,5.267652796707882,0.8679819968054743,-0.04746357097144102,0.8715631596664472,0.4615526183521891,0.8778771821361658,1.0067151525890936
5.421084216843369,12.414116642470375,5.324958655164211,0.9800299413045594,-0.07971633526485096,0.8836431865141465,0.4315534801703824,0.9546879992494094,0.6914078080425681
5.441088217643529,12.59373696221545,5.199494502398017,1.062929370304779,0.18790185159485537,0.8556531729751449,0.4134947502161638,0.8911171493465679,0.8233998838557007
5.461092218443689,12.584785979994901,5.247652858223076,0.8048446052165266,0.11623842849480412,0.719385044058934,0.5795350657804788,0.9023849148889611,0.883640327182829
5.481096219243849,12.404367435122087,5.118826791129947,0.9474706526615041,-0.11502890974692923,0.6557046696966131,0.5393176059220035,0.8785907630060489,0.8210336498721329
5.501100220044009,12.549225629976306,5.194393969329409,0.9891674228244957,-0.08956135433052,0.8052690957517459,0.24781981584677618,0.6911079979429263,0.8703858848124622
5.521104220844169,12.539760916693284,5.149945467388587,0.9084408220310591,-0.3899446405395693,0.8865230289618965,0.40128889391299777,0.7997022047926288,0.8592728075667126
5.541108221644329,12.51965326070907,5.197363968429385,0.8179665948727992,-0.15354175086152919,0.8953410242929367,0.2393619912721207,0.968763572106557,0.9069289183087513
5.561112222444489,12.47649443986185,5.209629917542174,0.8807065487367934,0.0772029647675349,0.7668194047645724,0.37872540431954343,0.8201940359503417,0.8064941227053056
5.581116223244649,12.429309685219447,5.295647814078481,0.9886773494728702,-0.17937795610424737,1.0699717840263374,0.4505378596342493,1.0576341255938855,0.8364783410998464
5.601120224044809,12.501475013318851,5.241235062498419,1.1074325271023042,-0.08359570083204415,0.8656973993144224,0.3616039947653635,0.9566767893704695,0.8622744393226282
5.621124224844969,12.589384812701413,5.198703584104286,1.028360023744767,-0.008240869697841102,1.165187587165463,0.4346353573153729,0.9628397490109365,0.772496514414005
5.641128225645129,12.608075198666876,5.244132241863991,0.9805752889390644,-0.11740294317404082,0.9987263693481058,0.5608416981818304,1.0406054669369589,0.8223623786391523
5.6611322264452895,12.503809446306347,5.263523358602448,1.0275077888802264,-0.2545801191725524,0.7723538772539368,0.39547339045982466,0.8936517984105936,0.7229413937180442
5.6811362272454495,12.459571678520675,5.2299128515217665,0.8680487480343178,-0.29525709912159115,0.8057027894883839,0.38450670394674696,0.8523650942404299,0.9252091924966288
5.70114022804561,12.585147537180905,5.282291135761378,0.9305941303441809,-0.24153788937272264,0.9713383561069409,0.5184978643856424,0.9748871155317098,0.7468407533736011
5.72114422884577,12.481475980290801,5.195092844318287,1.0372386057490646,-0.1662074997396198,0.9251825597655589,0.46824286699551004,0.8397590874365254,1.1599397317768383
5.74114822964593,12.5410232986209,5.227685807707408,1.1450770166282778,-0.13597635186747467,0.7078081956388242,0.44896971140275427,0.8337660654271035,0.8042537055142058
5.76115223044609,12.526480272844434,5.239832581120964,1.1053061514658282,-0.15065988433066432,0.7676795569268199,0.40166211318393424,0.9651149048687387,1.0147325711729664
5.78115623124625,12.230474736670798,5.1294940251020975,0.932849016528098,-0.22735327135870237,0.893177759199658,0.36225773295931646,0.9646546053362787,0.9106431700575813
5.80116023204641,12.44059960881172,5.24270170191244,0.9935869210410335,-0.022076401297185605,0.9461894732748092,0.5225906212538589,0.8404171927697737,0.9571059463942029
5.821164232846569,12.558920385822878,5.182971269814732,1.019868137997948,-0.23816334828144328,0.9532799686209662,0.48733686881554933,0.845357338451194,0.6768546379780557
5.841168233646729,12.53768696659094,5.141753356875995,1.1364761861189985,-0.3380181337519287,0.9112269351148399,0.5297988978477034,0.8414040206282245,0.7975563278033104
5.861172234446889,12.470220590214572,5.27372245951731,0.8911585048957206,0.015339883287249556,1.1517328775685591,0.3652616862911114,0.9733745748708873,0.7651126153041122
5.881176235247049,12.399511058413074,5.200800717709455,0.9355928507030158,-0.16241107285003156,1.095083667691,0.2870280184441828,0.9632682461236796,0.9025299854520209
5.901180236047209,12.510649621419523,5.167329620784505,1.0876704032210864,-0.2977599104029911,0.9578553569930657,0.329065021405799,1.156836817682716,0.639694016824397
5.9211842368473695,12.519321332433467,5.171825000846163,1.1827778220553233,-0.34729801996509563,0.7979527201808982,0.3348269138629095,0.8235531404573704,0.8527946424201005
5.94118823764753,12.392142211492716,5.207170241888692,0.8317818203939307,-0.22747754891462652,0.9382696870337512,0.3043909700701452,0.9627334085288627,0.7869312023251237
5.96119223844769,12.517681131465881,5.1523045767349185,0.8589513547966181,-0.3241595523636767,1.083861043879976,0.29141283030785775,0.8471979013951567,0.6790252526670705
5.98119623924785,12.489878154100323,5.17783566111527,0.9805313137965619,-0.30647178788120505,0.85581674417009,0.39175003343876236,0.8984751329335118,0.8283851454616052
6.00120024004801,12.602374954383684,5.1382380503067635,1.0268732868024166,-0.18512879418852213,0.9710344204128383,0.3855460470529429,0.9328422226509916,0.953769012409301
6.02120424084817,12.351288660095397,5.1657186181434,0.9073520636257937,-0.09014060115438269,1.0400783840740302,0.4514394712975582,1.0440051233731273,1.0010898720785781
6.04120824164833,12.714260955311358,5.165698820506277,0.7695230175280666,-0.2922684606286625,0.8682142611824493,0.2460743080388254,1.0241511195176891,0.6286090673421955
6.06121224244849,12.501471300437672,5.239968010371036,1.0942187141607689,-0.3248996389349825,1.0373545180563057,0.43646515086008547,1.0549201315671983,0.7694730151604955
6.08121624324865,12.452865487944353,5.2214051448706496,1.0890173355560449,-0.4362766878418926,1.0017276277651153,0.21123571103731217,0.9209541724232103,0.7136968847743466
6.10122024404881,12.426474722310601,5.188690769639561,0.9938075969954884,-0.4390488605376558,0.8068284912380949,0.23568415059979578,1.1156036675881578,0.8753934057428558
6.12122424484897,12.346767354186282,5.1564276494607455,0.9942889423775495,-0.23351876728500146,0.9816314827115983,0.3855288440943584,1.0150771730214618,0.9703111556699562
6.14122824564913,12.244677042499262,5.20040520802035,0.9201085552936016,-0.22492699323033433,0.905523835829167,0.32170690867933555,0.8605901452850123,0.8343052313304979
6.16123224644929,12.363364747440164,5.116231705134442,0.9329175200989346,-0.17045383355662008,1.0239414011426569,0.3865838512592325,0.8045317095295492,0.8243277453251648
6.18123624724945,12.551580813581129,5.210204426391024,1.0210638350619428,-0.3326021681027874,0.9723188919147657,0.25001316278117497,0.9517974921023347,0.8675967919358744
6.2012402480496105,12.393912238918299,5.277197997163421,0.9223394341371353,-0.17646415798580678,0.8440531004732889,0.37346217693527645,0.8270338205723679,0.881328794401235
6.221244248849771,12.592426137768987,5.057681714026579,1.1148228175817603,-0.4072508522033309,0.9216127501834145,0.2623164433064782,0.8859525848247367,0.7202379678223572
6.241248249649931,12.438666895581335,5.1425811138160125,0.9133912940718883,-0.15352858050627746,0.9596882697289179,0.24958933612795375,1.0008893096412683,0.8199597410608787
6.261252250450091,12.479858458339255,5.073078870821927,0.970385013893288,-0.2540106667774675,1.0856211877664272,0.2845267149964088,1.001784179943546,0.7699506947705387
6.281256251250251,12.359510586199901,5.237955598006901,0.9926787441272387,-0.3304197783320053,1.0448406262839884,0.35026108177322174,0.9029695897510458,1.1351785686004452
6.30126025205041,12.466153968518533,5.183350018564656,1.001518328258104,-0.20714098184758986,0.9767356081208487,0.383078790325608,0.8653828550068792,0.8965420838011814
6.32126425285057,12.40306779783375,5.158282083310099,0.8708208121613628,-0.43581277114708294,0.8555782250993852,0.38994173465048554,1.0862282014095066,0.6085267198383075
6.34126825365073,12.451408406578443,5.237464586251921,0.9691863535025911,-0.09235895286033907,0.9533702381962637,0.32640513659889114,0.9841770812147925,0.7584379643405308
6.36127225445089,12.459254068964471,5.13804141743,0.9195937900230898,-0.5180222807305433,0.9334211661064173,0.5127368820467804,0.850794659366917,0.7513592185421883
6.38127625525105,12.481171885499766,5.206802308050614,0.7711128426161619,-0.34013371116860686,0.8999281462461531,0.2737504441621948,1.007539432970179,0.7839544522051929
6.40128025605121,12.330954225671166,5.17469025826229,0.696372602724179,-0.39609657583132896,0.9474988006582354,0.30238578697296326,1.0416728821839178,0.864551693515239
6.42128425685137,12.562071106258665,5.144041966453943,0.8733871407566949,-0.5111862954960773,0.9502613705362533,0.24034689984293534,1.006349147791504,0.8121494098168199
6.4412882576515305,12.48174845174905,5.208765147425859,0.9638204225358121,-0.6734834406692349,0.8882777353098699,0.37728603413072953,0.8938437800280501,0.7872680315075685
6.4612922584516905,12.524510133454825,5.161343865067089,0.7915016775740424,-0.31131713289443985,1.063925512036316,0.2164703114021233,0.9716636618196739,0.8293062664861967
6.481296259251851,12.555428653000956,5.1667528482086125,1.0006067623032926,-0.43775682149930706,0.9729603651787238,0.16849814217377396,1.1031440217358346,0.9094805353521204
6.501300260052011,12.503611973395074,5.151928282269754,0.8734263987171135,-0.46986176586293826,0.9785382174130133,0.19595800034763905,0.9932147068830505,0.7690471466372102
6.521304260852171,12.404714463764911,5.190093595413488,0.8984917819322985,-0.3420298733009748,1.0021428945370048,0.24248054330548002,0.8462569631079019,0.7373210314335935
6.541308261652331,12.495641582970194,5.195464446422743,0.7771145219728401,-0.5101040605546896,0.9441243271164456,0.2567736062067591,1.098772450770543,0.7745329562079648
6.561312262452491,12.54874356503046,5.225432493563022,0.9219964617814224,-0.3587395063925659,0.9345381312277443,0.23473587010737385,0.9743138287276077,0.8645594069849195
6.581316263252651,12.511538585211232,5.247331713962464,0.9906259012942573,-0.24755026131226887,0.8470225604092616,0.10509104416013834,1.022336647037303,0.9260271752794016
6.601320264052811,12.356464547610027,5.141766753541503,0.95966568091827,-0.35320623671735285,1.0086040399248923,0.41655491192771277,1.1312595411279451,0.7329843747553125
6.621324264852971,12.455148651966995,5.166966634160684,0.99881289635201,-0.5220850189609794,1.1034188429313194,0.08991589147769172,0.9645143536179429,0.9185105250888485
6.641328265653131,12.471914658387895,5.189716067155124,0.8577148535660516,-0.533347980083826,1.1297470224602957,0.2735771970697537,1.0653546185484297,0.7435763868365841
6.661332266453291,12.558131177318126,5.2166368911725804,0.8550431206850786,-0.5291342495584834,1.0313845690185761,0.04607709272825958,0.9780523116453185,0.7329534236501168
6.681336267253451,12.500203152614933,5.209889716187173,0.8967600103212909,-0.4538760356569248,0.9793781741268647,0.26060822000668576,0.8806305994139882,0.7796776318152211
6.701340268053611,12.460861397040581,5.219960702135837,0.9217711711855677,-0.37543000872965965,0.6001338314848448,0.07196884418004632,0.8011690176280718,0.6789939380699015
6.7213442688537715,12.53829653334231,5.1502563235942125,0.800410619722239,-0.4848349722509705,0.8570493472323866,-0.05916646120121624,0.9721969345848186,0.7202268341873174
6.7413482696539315,12.569940716237197,5.224878650851889,0.7596932484981136,-0.588172447584394,0.9033759542802875,0.25762523807977095,1.0407651923897987,0.7226865515043435
6.761352270454091,12.552275380800136,5.205066342767681,0.9440462058388606,-0.4672065555223655,1.1694462712100537,0.24788196342969027,0.9536171810915473,0.8274945443256524
6.781356271254251,12.397917692273703,5.099336691732929,0.7266081100850652,-0.4178321247526795,0.7600426056367775,0.2815592578927671,1.0432538726629925,0.8431829802111482
6.801360272054411,12.529959722665126,5.207503963410585,0.8184498289632421,-0.42707830145454806,0.8009562966476829,-0.02747683320590949,0.9518396609154812,0.7140262798079064
6.821364272854571,12.446752851678385,5.163032233230931,0.8911166045530968,-0.7028848475306304,0.8970707222958357,0.23583281779334025,1.095633365544791,0.7815510330252526
6.841368273654731,12.663131027013195,5.074074604138532,0.8311057081976423,-0.4788583173977906,0.7582046324612235,0.22167727124343317,0.9622962076684258,0.8258732757718505
6.861372274454891,12.481924934205065,5.1507878718745355,0.8933844572921873,-0.5361074328054224,1.0294584522638643,0.23560563256979203,0.8268045773303858,0.756650711391288
6.881376275255051,12.514906177843057,5.203458722522664,0.8221550299171247,-0.5259771174090646,0.8736231120630841,0.2594541566250935,1.1411389482410448,0.8022263396853746
6.901380276055211,12.64594560287717,5.172295721507174,0.7552511242932533,-0.3513251763354472,0.8671291557947156,0.22237287337438252,0.931826025465085,0.9899548688803352
6.921384276855371,12.381036516660561,5.134201005151905,0.9969822864766014,-0.42303704530875863,1.0895277245577324,0.12344184117868019,0.8960233005978679,0.7631588095830638
6.941388277655531,12.392981843208032,5.128080867596304,0.9451777948405344,-0.6795507674087427,1.171935878505454,0.08838340236729164,0.790949974233899,0.7396016643594133
6.961392278455691,12.642880955365218,5.135404851003699,0.7186484733258983,-0.6781545067425132,1.1287777213493166,0.37966212104652775,0.9946659975963373,0.7477308562297583
6.9813962792558515,12.416561862317556,5.1684242266619895,0.8898463801791834,-0.5046688281187682,1.0541461719679146,-0.027576634202231637,1.091025032550402,0.8111465290462947
7.001400280056012,12.435849075190951,5.077978530815949,0.8532384185785846,-0.47672892900516206,0.966009323138124,0.08110965102418802,0.9983931017080305,0.759135271446224
7.021404280856172,12.446274933138447,5.1683359413485785,0.6990806484950701,-0.5088313897121642,1.0464885494765228,0.19451262329832508,0.841055697005397,0.7406592752375757
7.041408281656332,12.355671443390415,5.20345911625684,0.9710332866570399,-0.6434423159599157,1.0547580478951784,-0.03880229327928031,1.0177765360945892,0.6747277838462634
7.061412282456492,12.38640421399443,5.130305817701307,1.0520483533285288,-0.6154718343344256,0.9943175836762842,0.09033374411693933,0.7991083935499103,0.7123241548377519
7.081416283256652,12.573828687545438,5.189666185457038,0.8198521604496202,-0.6097141911957901,1.1804972379584695,0.3668720841660609,1.093583625160382,0.8873526453636748
7.101420284056812,12.509708600071404,5.1764793714364785,0.911250562301126,-0.6416695235477783,0.8663588287650605,0.09707476489681799,1.078100323042549,0.874058971479761
7.121424284856972,12.611136038251402,5.161110462807756,0.8676202571398625,-0.5941142434423283,1.0415466860160816,0.0028820753430279233,0.7762367194435672,0.742655858229825
7.141428285657132,12.385034214013512,5.151588299256829,0.9476366729023197,-0.5525893876333576,0.9151487781342678,0.3871380552693718,1.1025829765749824,0.6556204028540538
7.161432286457292,12.41950252137818,5.130483656100532,0.9602182537092904,-0.5966207912806087,0.7279458423862001,0.05954088564438319,1.0319470215589477,0.6644946110126313
7.181436287257452,12.512409586044804,5.117302773581516,0.6552800994213931,-0.6564216974909967,1.0853087286414185,0.08919083761453081,1.0175264428093223,0.558034879435112
7.201440288057612,12.378076190801945,5.100239642553447,0.8982796294579206,-0.46133082698567873,1.1837747198844057,0.129024485011534,1.1675259699854597,0.7066323414279266
7.2214442888577715,12.49162511589455,5.151631889800397,0.7004959221203417,-0.5027951890376986,0.8574055254442045,0.24046515077256608,1.1189368316429729,0.7744451619318146
7.2414482896579315,12.554420868782238,5.039965099344346,0.8670412087265376,-0.7217951988870864,1.048635989001473,0.040348727916293306,0.7964952364745211,0.7082070850755118
7.261452290458092,12.619381433370602,5.162349964470135,0.8030844500752788,-0.5839582526094116,0.9701294672172196,0.06611163020961022,1.253881480841458,1.001315081551602
7.281456291258252,12.606098233644083,5.085201117799605,0.9691571090761514,-0.6194319226578988,1.0056728612078496,0.09376486280514652,1.0218190468423294,0.5826069325025642
7.301460292058412,12.470098198417734,5.103930914108174,0.655881178547445,-0.5315135356496181,0.8774655596254992,0.15166294944840464,1.2406522496394161,0.6666720410659619
7.321464292858572,12.379580513814838,5.091861300484714,0.7753561004567822,-0.6569745879101943,1.017034661987885,0.14852530580546897,0.9353916567234256,0.8394435165398346
7.341468293658732,12.595173904831919,5.115428769971592,0.5884473041753886,-0.5255446297527491,0.8357776379460775,0.09573068332628212,0.89703299547937,0.738306825229468
7.361472294458892,12.53411146954131,5.134004767112043,0.7943532429342625,-0.6243177248795541,0.9242445389775692,0.04430964952991344,1.161485769713088,0.6798769388422945
7.381476295259052,12.66022521798862,5.090488440622036,0.8076534624980349,-0.4750987681824671,0.9793116466616261,0.14164083833809415,0.9310092133463236,0.8647470651665923
7.401480296059212,12.433387480825058,5.086644821822591,0.8589945934418727,-0.737816540917444,1.0210525004756037,0.07013302141943062,1.055586083099675,0.6697146187506184
7.421484296859372,12.470866394331232,5.142084581844617,0.584295041677184,-0.6579637596865773,0.860374685646904,0.00020588414497715868,0.9865721336048295,0.8777865760021182
7.441488297659532,12.632358479453998,5.1654032419838165,0.6449982253061299,-0.5940611543103231,1.072764309370335,0.02347869827999778,1.1622173799417777,0.8873311100160448
7.461492298459692,12.44291767414447,5.121989173307936,0.8479723078535762,-0.5400457266088201,0.9087668758481411,0.012980587693453727,1.0064853766359008,0.70908961901345
7.481496299259852,12.58523519238106,5.111522739842943,0.6942656113676783,-0.7448809806980033,0.8606304225314713,0.03722421070735678,1.0423292370343917,0.7125227506045195
7.5015003000600124,12.470027609973547,5.218870946568832,0.7472109541978912,-0.531614032034589,1.2707583624709233,0.22377740901804483,1.0022675283723306,0.7087168973249119
7.5215043008601725,12.402727520631537,5.072981337457242,0.5744115528412728,-0.6549663666102414,0.982493604590069,-0.12248337642982905,1.0008849358066099,0.656237705907387
7.541508301660333,12.320066088009234,5.084487558055569,0.95145716964805,-0.6831761189351502,0.9708723610087753,0.019807851735199743,1.0120364281040848,0.6960615201111598
7.561512302460493,12.4697803289735,5.094835705923565,0.7669192828460509,-0.5942621149724509,0.8176270555801213,0.11341402034095069,0.9519607227697753,0.6940210314474529
7.581516303260653,12.406656349259741,5.06615250148752,0.7147271089726238,-0.7496556527997233,0.9339024916498928,0.10610565623437196,0.8923630654320953,0.7104275047925078
7.601520304060813,12.610645751180634,5.173364263778467,0.7294687904416205,-0.7557083366295134,0.8301197539348,0.14322279491879092,0.9328218462460846,0.7846643259618248
7.621524304860973,12.49648479108279,5.169762371380148,0.6730956662470609,-0.49645621047829214,0.9939362923097211,0.18758536625827124,1.0770894748763629,0.5329905784722802
7.641528305661133,12.350549764534199,5.084382985143873,0.759856340436949,-0.5261241210923852,0.7604175349082549,0.005855138039637532,1.033886456688392,0.7887797661301689
7.661532306461293,12.261503663173334,5.156323216456424,0.8627084526203229,-0.6392055941543568,0.9694515130256697,0.15675809381303507,1.160404812255264,0.9740689687910473
7.681536307261453,12.423824696767635,5.1904694740225334,0.6743113310211634,-0.7244665382235972,1.0123776295142386,-0.03779830781983595,0.9191819739025142,0.7624355995895271
7.701540308061612,12.559095580825067,5.187670537892745,0.8114108842451293,-0.45596626190774714,0.9837034780652516,0.07048692472541213,0.9469004325792031,0.9270764650248409
7.721544308861772,12.29404826929657,5.178000190641621,0.7242487611728075,-0.45237406905140054,1.193476201908951,-0.06707655626086091,1.032290763622755,0.6704796095531377
7.741548309661932,12.330854877907628,5.130080052897303,0.9918954430504879,-0.667780376528321,1.0848441949048682,0.08712923693176763,0.939756445173193,0.5776065990631863
7.7615523104620925,12.482661290327254,5.165187131565528,0.7627385986032076,-0.7289831930720321,0.8835566857024293,0.01095111380341085,0.8334703098690618,0.6395920586131993
7.781556311262253,12.693619916099125,5.0928778001614186,0.7187858855607173,-0.5731217918833443,1.107131917517675,0.022947910025094942,1.0251595353088836,0.5622663059523798
7.801560312062413,12.549930965503902,5.172175296921084,0.6196510169915274,-0.7513086476518542,1.1938125676496245,0.0013355537641217812,1.1296983300025891,0.6511106258478976
7.821564312862573,12.661479859064446,5.129631571001112,0.7300452789161965,-0.7504030546765942,0.8846211765713143,0.03260796148370795,0.9600227431618447,0.7958420308836776
7.841568313662733,12.525792845620714,5.03811577635398,0.9500027489556536,-0.7776788330092769,1.0539344901228664,-0.24460492158496439,1.0092927166574477,0.5398302372924119
7.861572314462893,12.52042624762915,5.008561359667992,0.6469628400281332,-0.6582835798919815,0.8353049598825043,0.12950291680182352,1.239887889538105,0.5602503430885455
7.881576315263053,12.318217298587742,5.059270732915756,0.6959507457965906,-0.7267786267932576,0.8160785347852706,-0.09380285810431845,1.0650534972489336,0.772244960018655
7.901580316063213,12.40878784703192,5.097250408023212,0.7089717218582833,-0.6661844753809776,0.9712066603131855,-0.10776247791825228,1.0857260718481583,0.7822649048910093
7.921584316863373,12.342593488983029,5.138240987002922,0.6898778937753642,-0.9046742450010075,1.0267596093589875,-0.22381557139608083,1.2318047249181794,0.6739732889276635
7.941588317663533,12.592177213576898,5.110855064848502,0.8530686656845126,-0.8923213628886665,1.1262572218587823,-0.03947466553710503,0.8809066939233994,0.7986312937891
7.961592318463693,12.621595412780815,5.044743349165175,0.5502971933885406,-0.7224792118161003,1.1271850017442024,-0.15113564665393356,1.051848996744171,0.5991236687795205
7.981596319263853,12.558555061526054,5.085186658458275,0.747956980843756,-0.7470933425438562,0.9395137761669872,-0.012578448386865773,1.0245906895220838,0.6611123223642585
8.001600320064012,12.723594055878857,5.052399769598708,0.5688803323017967,-0.5436174508742063,1.0406937837510726,-0.13031238958366426,0.9472719952237577,0.7654252804848198
8.021604320864173,12.440650402212153,5.077460480939469,0.537528335950259,-0.8146429695191959,0.9682392176107878,-0.15448704081291426,1.0160508363765675,0.7317883071510735
8.041608321664333,12.38649334650437,5.070461984674743,0.5389000534363129,-0.722430391440245,1.0023476661218944,-0.08653474432892871,1.0586623865329348,0.7752042847786859
8.061612322464493,12.470546870483203,5.068739004689798,0.6251936362443798,-0.624594366719956,1.052998566846873,0.013033618387335869,0.9529149214676915,0.6627056540466771
8.081616323264653,12.436617572481296,5.061547557181352,0.5848205512897197,-0.7160916830198427,1.1531869057802422,-0.0001445171551074792,1.0647156999268856,0.8090881377233892
8.101620324064813,12.643127485097349,5.063750002872498,0.6738040622600143,-0.6877425857423787,0.9857714837018784,-0.1300644968923081,0.8648243994415611,0.7552834638474077
8.121624324864973,12.578087081435953,5.1148890040330235,0.6091217771827903,-0.9389374693938033,1.0470550465268635,-0.2197542984037427,0.9281405196977713,0.6840801949369423
8.141628325665133,12.70478049506362,5.056087390384463,0.7053280665540562,-0.8373904414210748,0.9028810114308509,-0.07360096663003707,1.0206867297132713,0.6715553287279894
8.161632326465293,12.515415454752981,5.130054423869311,0.7163186400149971,-0.8338948090082577,0.7718409211420174,-0.1782270101564429,0.9281543716310311,0.601306813419158
8.181636327265453,12.562480179980119,5.134524419577141,0.4825075605137603,-0.9451856969564614,1.1057900868364323,-0.024182297004940075,1.0028674989508706,0.6412968126902894
8.201640328065613,12.3745715550574,5.034168362315494,0.6110498267626399,-0.8283456099328445,0.8813968608664164,-0.10341505276437957,1.0856691838096895,0.6993860159274284
8.221644328865773,12.495178773629888,5.141054771553924,0.6917823084997191,-0.8007932915381596,1.0460746318582852,-0.15654748480043476,1.067413649203277,0.6736917659899191
8.241648329665933,12.472249900964638,5.092703318430101,0.4772698255544096,-0.6774262369300259,1.103215569665449,-0.1685998423931805,0.8530352246861393,0.6942798374073309
8.261652330466093,12.539455575102457,5.0519619273849194,0.546630156575396,-0.6595694588335312,0.9353400473059947,-0.13106319747335254,0.9518677714343008,0.766897822601218
8.281656331266253,12.59138611696318,5.0526153508290985,0.6722230253884208,-0.6936805060212262,0.899005198348381,0.11245168497502923,0.8946632460288355,0.7719914651860116
8.301660332066414,12.56034998675753,5.051282361406164,0.6028759291316406,-0.7690993247625506,0.9426604011924267,-0.0725813000447947,1.1631674172044681,0.6154579866210211
8.321664332866574,12.593634654606507,5.158373649546534,0.7505753764703514,-0.758452680203602,0.906405863681112,-0.2476492809902427,0.8480091445895824,0.8543303920740024
8.341668333666734,12.452069057150627,5.193916576704308,0.6451402304852291,-0.8194791408745512,1.1359306788965897,0.019108489990707744,1.0757431535217004,0.7770842230905802
8.361672334466894,12.41195553707475,5.052919956518458,0.5280731318389466,-0.7043113770365689,0.9714424284431884,-0.3399923743425954,0.9191561148397391,0.6192900719160818
8.381676335267054,12.765559258642316,5.111203222128663,0.7586407092364525,-0.9730427206809622,0.8659685973327595,-0.12898451876088368,1.1511969106403561,0.7408939525181715
8.401680336067214,12.53310031871228,5.122949778433993,0.6565306500026603,-0.8392322034566798,0.8255543158765228,-0.052346503269546936,0.9810865045277809,0.7277610681757236
8.421684336867374,12.607495477212051,5.083376242208734,0.5015758423879672,-0.87330573382887,1.0256428974259757,-0.03483594608297057,0.9178459082695722,0.766694367644369
8.441688337667534,12.431101721077624,5.052814473415994,0.6966085664078064,-0.8077791678217945,1.0881151951530024,-0.21972546536119153,0.9392803542732244,0.583921710270532
8.461692338467694,12.497235236686924,5.083885595846117,0.386591192044516,-0.837492400282794,0.9624182738682938,-0.26150867834211444,0.970835509042108,0.6406935475733588
8.481696339267854,12.385287374609351,5.122915629989166,0.522150531216621,-0.941964223281029,1.2322519696438738,-0.23068089617899795,1.0488281796413603,0.5411075718475187
8.501700340068014,12.490895278112134,5.035926298215169,0.5627727487125787,-0.8555505852952991,0.854824244754125,-0.11591320505293598,1.1345299938956304,0.5690977023886808
8.521704340868174,12.663111429013728,5.154489651161738,0.6188323078406491,-0.6643283613001788,1.0479761311309748,-0.19500023994015894,1.0554420392485537,0.6148152391260052
8.541708341668334,12.717785530838368,5.162417690209551,0.5073543359729705,-0.8609648070239446,1.0613170543055017,-0.24810865129883064,1.063298755468058,0.6670083101717453
8.561712342468494,12.504336114061239,5.087688346259119,0.460214365706464,-0.8721944334401217,0.9056844119631131,-0.16713896705829898,1.0923540069043252,0.6527969597053117
8.581716343268655,12.746832471932874,5.122284485066716,0.4286678593110897,-0.8918740462043582,1.0018428830008532,-0.08500023807748654,0.9042817097421729,0.5866969717062473
8.601720344068815,12.169607428950272,5.085980466915466,0.40735181498662415,-0.7892073411276476,1.0266818170313805,-0.12008082743841862,1.0830514615379945,0.6615779325145241
8.621724344868975,12.400776125806422,5.114864801402404,0.5749772185775127,-0.8014001629445865,1.117032582186704,-0.2069469011151938,1.1395980843881977,0.8078935252703342
8.641728345669135,12.469834413578498,5.136248911554354,0.3687325891456552,-0.8407758105031519,0.8822358389410128,-0.2625473712701256,0.8783798234491114,0.6070997244550126
8.661732346469295,12.405108354594832,5.024348452852966,0.6370294825647109,-0.7734679162847042,0.9643787293708536,-0.19035926580880938,0.9997048077799148,0.6866501593850125
8.681736347269455,12.530921194201715,5.048960369619851,0.5406411657833985,-0.8855708612283484,1.0951555617385758,-0.12399335484223006,0.956012840320667,0.6861262195380888
8.701740348069615,12.44272635152657,5.063175960591611,0.5407565931149548,-0.9687452458042694,0.9171330149620043,-0.09343559630561667,0.9223383016256705,0.6848042852660685
8.721744348869775,12.48136812622041,5.157466851201417,0.5910980689724712,-0.8962689370109369,0.9782526785226728,-0.1373228305316022,1.0764333570364104,0.6994904676487819
8.741748349669935,12.546038932635609,5.103795996270041,0.3914262081668768,-0.9915150456635679,1.111083280647904,-0.2874092592721781,0.9362836548130636,0.49874436162713115
8.761752350470095,12.573082795335441,5.058465669291884,0.5490926859719836,-0.8034712209422326,0.9520334886238865,-0.23976982010929357,1.1957946986058159,0.6820473067407619
8.781756351270255,12.383595729931155,5.086869895464748,0.5443520793406886,-0.9421502512817174,0.9177513835872364,-0.11847444158719182,1.0345806663233985,0.6960845552467518
8.801760352070415,12.436829060122347,5.09914550242629,0.4329677946953857,-0.9523394753264917,0.9949555941729235,-0.08535266952825532,1.1039623140617294,0.5325531221266194
8.821764352870575,12.644143145163756,5.109814362153873,0.30442110253641136,-1.0055756933027105,1.05079294151288,-0.28500739192163893,0.8573908656885126,0.5008085240796084
8.841768353670735,12.431247351516468,5.054437400359201,0.5146720143640963,-0.911583505727447,0.9543741217882329,-0.40492684368474435,0.8587844256476781,0.6131963401986336
8.861772354470894,12.554250003662629,5.119703745965575,0.41496545628564335,-0.843949839083265,0.9252491608715044,-0.24075928497810395,0.8621340366005049,0.65994293869643
8.881776355271054,12.363483663577524,4.986729792081808,0.48863335379658085,-0.8271460791482799,1.0550085776009326,-0.304465498271183,0.7976012957822574,0.5765428414030089
8.901780356071214,12.4827340095971,5.140724581724395,0.21964564368871084,-0.9173564360580211,0.7720880043139707,-0.3068175477723119,0.9451177444423652,0.8201307680287311
8.921784356871374,12.658427640135097,5.037924973077465,0.4975470892931954,-0.9433828998257608,0.9484565678019228,-0.24189124592808386,0.8880350273453589,0.6207599855845191
8.941788357671534,12.605419584354904,5.005547636801576,0.4545158301310707,-0.8165081724468838,1.1896234308950988,-0.3086078008753204,0.8881869534670339,0.6125286360150872
8.961792358471694,12.544328120956452,5.049339621459164,0.5649030314840168,-0.9207213798237202,0.9994487911804374,-0.16941541933656332,0.8944138759029464,0.6820480368631114
8.981796359271854,12.576050807476904,5.015700064708612,0.349857235150412,-0.9219449681228264,1.2538505569708407,-0.2786816009194697,1.0317089948526517,0.6092000262024019
9.001800360072014,12.354405256475188,5.0404595311136635,0.4971429008972183,-0.9225018453358526,1.077121146443054,-0.18455116918986925,0.8814928675602044,0.6231172422455351
9.021804360872174,12.49291799119279,5.07319755707608,0.4283929248628072,-0.8819859887153252,1.1257401682918486,-0.23710090443681267,0.9770358562870595,0.47660570302249844
9.041808361672334,12.6248197793814,5.060448823908831,0.47750245955114684,-1.0207526014206436,1.1245497173143841,-0.36031999734456965,0.9389010330943656,0.5413531624066827
9.061812362472494,12.413613975317789,5.051207824280085,0.4245579091545934,-0.9311548249286979,0.8885485371288995,-0.23771453501971823,1.113133344221444,0.664127976867914
9.081816363272655,12.584724647289379,5.030417123043819,0.41752251255242245,-0.9504043439115264,0.8752185760423309,-0.14749577739500525,0.9079569988499769,0.5577586704414492
9.101820364072815,12.407486361019995,4.983085055401002,0.4839796007076211,-0.8583785590663826,0.9717954774436884,-0.16957010800842245,1.038627391918735,0.7419660863861451
9.121824364872975,12.444231972386843,5.069427421516904,0.4468081696635231,-0.7147241109792323,1.2884203316514988,-0.45055898483173745,1.0642122626493051,0.6081833179649412
9.141828365673135,12.550064552481938,5.138659237700773,0.34460215442120257,-0.7806997042465182,1.3129215279131055,-0.24805902704318217,1.0667054083828005,0.4889748152605653
9.161832366473295,12.356612459228314,4.986976351125814,0.4680018559069375,-0.7588038252869905,1.0741622511801125,-0.2014714809993513,0.9924644047539221,0.5717176656825802
9.181836367273455,12.49258256882648,5.035989043345562,0.1978553475026281,-0.8214734944014236,1.1151283823836529,-0.15557348445714864,0.9565239321163186,0.6504563466147051
9.201840368073615,12.679749847832086,4.978196613797924,0.36351529235569496,-0.8788172140907609,0.9273713757889345,-0.17563398133782027,0.9435776602342807,0.5379634736714796
9.221844368873775,12.488933411771407,5.013153704710936,0.2759797275343168,-0.7808123180299071,0.9248602188601498,-0.2639972015171124,1.1238169802357636,0.5833192356397288
9.241848369673935,12.492882808540056,5.093078069082383,0.2698237327875771,-0.931542606111356,0.8785100865620779,-0.36995207728047574,0.9962300618999732,0.7565453905896043
9.261852370474095,12.35873073648633,5.108203347160628,0.5016763852138165,-0.944965450214787,0.764878802184807,-0.17341445624309598,0.850502777593164,0.7775199398725066
9.281856371274255,12.589285644993128,5.082696321551836,0.5354049081442901,-0.8692623558069511,0.7843067454494853,-0.3086269257280936,1.025361046427193,0.8255593526568856
9.301860372074415,12.491381570680524,5.002261599098741,0.13959559523356543,-1.0650206519259533,1.116440675310193,-0.2432622817488621,0.9358978894444059,0.5593979700351391
9.321864372874575,12.492527239280816,5.102094437904434,0.3082044399311146,-0.9830121181637432,0.9684805473988329,-0.20838251194314927,0.8785410852711468,0.4396575965688352
9.341868373674735,12.481645060817762,5.088021281968618,0.06589217786281171,-1.0603937424625485,1.011984650752772,-0.38442934464349493,0.876862635388003,0.8282676065805161
9.361872374474896,12.476995414771576,5.013253748330779,0.36011153970428855,-0.9251652967657659,1.0348173524800803,-0.3185420968748536,0.7968515120551883,0.7041915775167052
9.381876375275056,12.350870503962847,5.009139732449864,0.301621512993682,-0.9025253940171406,0.8718198007430219,-0.49842866623761195,1.0783072194121757,0.46284201682121606
9.401880376075216,12.476248076251483,4.972860877538115,0.4736557562887757,-1.0392289394738001,1.0512978591782856,-0.153462507362325,0.9905926750019811,0.6334844338537767
9.421884376875376,12.490755811031914,5.033749327233743,0.18159925694807233,-1.0248240489360887,0.9540145258005138,-0.5009014415233608,1.117266578862314,0.786122615664622
9.441888377675536,12.356931626506938,5.002745228492117,0.29334444953118727,-0.8719382109842534,0.8396912753146469,-0.1949483838814634,1.040265790248672,0.6590856319952132
9.461892378475696,12.438931804037333,4.997176092162203,0.32600623645921123,-1.0273489168545684,0.9018894965392802,-0.2750238022656568,0.9353907655605943,0.6230586413643213
9.481896379275856,12.514772017569847,5.055847879864666,0.22591732283996302,-0.8200483362284405,0.9219379961180282,-0.4100296722940404,0.8192723817239149,0.4775584659890937
9.501900380076016,12.267305422745364,5.033797795479966,0.38245590584125344,-0.9549569855961597,0.8966138517080064,-0.35234070254679767,1.0299479159124487,0.4892688074315835
9.521904380876176,12.502898883532671,5.061505401228534,0.3943481283429971,-0.9971513422940135,0.7237346435566787,-0.39188196616467963,0.8733619403837031,0.5593019154391501
9.541908381676336,12.439349149609766,4.99933706359969,0.0719142433225225,-0.9608749230737003,1.0138540809952967,-0.19594075122434823,1.1033854071329587,0.44446658853003207
9.561912382476496,12.50155975762049,5.106666544838243,0.39112900156218544,-0.9131800056804529,0.8650432481728505,-0.3193810485305881,1.1578199956511004,0.47520428190925307
9.581916383276656,12.54456326631647,5.038155244698666,0.27929386566075115,-0.7680229052250896,1.0285451529764633,-0.19728117007440038,1.1481309913511013,0.6577498315361747
9.601920384076816,12.51640167828726,5.030995656259151,0.1945236896693614,-0.9576151311160086,0.76919362040578,-0.3618308811133935,0.8359372620182431,0.6484842109836024
9.621924384876976,12.387886343178122,5.060594211372597,0.16583386103365427,-0.9166059081754968,0.9619118124262542,-0.29928228748723396,0.8323910494300758,0.45168407503806857
9.641928385677137,12.394101087431482,5.122366076269664,0.2162642952741504,-0.9372106784247108,0.7957546967152788,-0.25440467485203866,0.8993501950712424,0.6130443321106284
9.661932386477297,12.286913119149663,5.044466136672943,0.29673671529825235,-1.0330572580996755,0.86847102918018,-0.323102402122959,0.9790814638515952,0.6017607421296579
9.681936387277457,12.538481503155841,5.084912177535281,0.16198130872731398,-0.8113793319874979,1.1330567837405785,-0.21238181834136136,0.8715882184065837,0.6683766637218385
9.701940388077617,12.544320217195857,5.127697051282265,0.3269913475715006,-0.9440316717819304,0.8516859492260184,-0.44658376149800366,1.003911763262354,0.5311574258507379
9.721944388877777,12.503923272190706,4.967997332542342,0.22328948997345188,-1.003444084827526,0.9845231619567868,-0.37111098055785036,1.0073138875852765,0.47867084053459663
9.741948389677937,12.443036300531256,5.072584784084861,0.11021518367698746,-0.9061989859583651,1.113727776387646,-0.47375379703896403,1.0005094273077597,0.29480798928129137
9.761952390478097,12.513953496276553,4.968323256282684,0.14763838445468191,-1.009743498548799,0.8891395280369593,-0.4925623406750166,0.9207902811138318,0.5688476183397335
9.781956391278255,12.647061422394913,5.013314134036875,0.1850474466541815,-0.9684126749087207,0.9547560867359096,-0.33798451604487834,0.9032921059386665,0.6306705703820278
9.801960392078415,12.459013875691992,5.077113867692787,0.16264375724695213,-0.9918340040653135,1.016435850543221,-0.4135451375250586,0.9357235670023536,0.5720349896697613
9.821964392878575,12.561654546670141,5.047858384473363,0.3180949828484954,-0.9890573232398201,0.8261201252786683,-0.3031701150033264,1.0899611824617346,0.5277401435615161
9.841968393678735,12.515654640441364,5.0386945458949715,0.08177780484737528,-1.0932357756015427,0.7938244729066234,-0.4142917947528987,0.9781330467840208,0.4864436541989239
9.861972394478896,12.631303382483274,5.0829966687123775,0.09161625130333496,-0.8319932210505421,0.8867403295619409,-0.370658912203097,0.8687016562475101,0.6287064506273109
9.881976395279056,12.52518997860912,4.99226394046674,0.104125402984232,-1.040227500929166,0.8870742058369042,-0.4487589328517336,1.0690582284204357,0.531585384290101
9.901980396079216,12.564235521066076,4.952457275933578,0.23640826592167022,-1.0948474438264062,0.7269616420361757,-0.2859883007991425,1.0545336324455368,0.5903331558742373
9.921984396879376,12.415695433564855,4.937022053592227,0.12093270432251794,-1.149508660157176,0.9057931772194945,-0.4311825273874342,0.9413691764170444,0.5052654677217782
9.941988397679536,12.449150721556405,4.984198944519757,0.26517529882696367,-0.9717934796921748,0.8895018778055555,-0.4454332399748925,1.0065149821657187,0.41208688270947685
9.961992398479696,12.458453616963594,5.035067133936648,0.07923145523481724,-0.9985679371968159,1.0601975790706022,-0.4050018631247092,0.8588391482333653,0.40140048672147344
9.981996399279856,12.3511665275695,5.077050630761101,0.30394256963926614,-1.0868623773856398,0.8902245987275276,-0.26774249895656893,1.033997517000768,0.6600263339897754
10.002000400080016,12.586140567993015,5.06603361952855,0.20509338769969443,-0.8313473549434828,0.8365491405239894,-0.37217155031210813,0.9246825598023788,0.639320950702491
10.022004400880176,12.299936797052354,5.0276606993613235,0.23545242316123544,-0.9243020576071111,1.0380865643655568,-0.4970649120773142,0.9250212392626987,0.6834884233693796
10.042008401680336,12.360370609625864,5.0038981779770495,0.03086885932130383,-0.8764907692227439,0.7664209407916265,-0.43940216605662846,0.9595522213599466,0.5399724817492717
10.062012402480496,12.550057332706634,5.066314616684084,0.16625341571652597,-1.1875130443790336,0.9397248905691874,-0.4917790738867164,0.9781557910338016,0.47877296725903207
10.082016403280656,12.440410032403369,5.050060952389419,-0.0032080901709945486,-1.0854050668545363,0.837755763365017,-0.4850435494581778,1.0254339223162572,0.46430258028329124
10.102020404080816,12.514404149636771,4.994316138094786,0.1968809590398264,-1.0016857703696425,0.9334575490063773,-0.420035800207676,0.6896051610954778,0.5095314458066572
10.122024404880976,12.390332816704136,4.953395125020373,0.055040163068034914,-1.1105212808057232,0.9809392840431644,-0.3484070579338795,0.9324050959017927,0.5970626840496555
10.142028405681137,12.450168070080124,5.031850911684094,0.050929086327471645,-1.1959295924248234,0.7129748856322761,-0.3096659143927065,0.9467647336203988,0.5776463482771845
10.162032406481297,12.512769992955079,4.9732119139093465,-0.08534322234994594,-1.0107046149696048,0.7827122706722468,-0.4345919793105945,0.8362474945472201,0.580331741921415
10.182036407281457,12.47679209801182,4.964507154592199,0.10777575095179409,-1.0912060798973,0.8579954879768027,-0.4446843362222995,0.6785971409348344,0.5259508247976747
10.202040408081617,12.48317467625986,5.040300156867366,0.08634938350236902,-0.8833716427608834,1.0491172030047986,-0.46285720633279004,0.9154766608977235,0.6494298282344959
10.222044408881777,12.45969856391041,5.075868730395618,-0.11127890021230177,-0.9278366852264281,0.8710211534823471,-0.4145564481908159,0.9547176453295038,0.7240776117564046
10.242048409681937,12.4327500792442,5.049919599147553,0.059786544317737646,-0.9251240405332477,0.9482195904790709,-0.4098736625841506,0.8372443380765575,0.46821881083685185
10.262052410482097,12.45736687305193,4.960526786611726,0.0718216202473086,-0.8772527014775482,0.8024874035648175,-0.36991387486891225,0.8569603626702794,0.6148453283134212
10.282056411282257,12.379993947631158,4.966733901598054,0.09708084746633988,-1.0011668638379543,0.9743544743461183,-0.5296688679804744,0.9640550293899837,0.5530572186503009
10.302060412082417,12.361545282996813,5.070159515279165,0.12085950010267603,-0.8713949347483462,0.7321991392514622,-0.639679176337837,0.8430864707106369,0.5115710673964664
10.322064412882577,12.422083715224163,5.017365348336638,0.11089829563058475,-0.8637489053870206,0.8237695434076654,-0.3695604533123713,0.989044788203327,0.6108245310077647
10.342068413682737,12.517380729596015,4.950987274441041,0.060695103137792764,-1.0038499049995264,0.9520897450184138,-0.3320377236517146,0.8124389806601711,0.48687384724893396
10.362072414482897,12.546317625460553,5.015833899309487,0.0657207929505875,-0.9503435397415931,0.7495958733216732,-0.5549140272353579,0.9277296717803721,0.6322315980106339
10.382076415283057,12.3735047687279,4.960318537896849,0.1187658955620011,-0.9653748961175419,1.0006482669856076,-0.5630891305348749,0.7334205485270562,0.31655152315780705
10.402080416083217,12.265688577545708,4.8984473942475475,0.12246736926165096,-1.0642181467110403,0.7475999616383736,-0.40537937914595484,0.9047974137644,0.5140557941199247
10.422084416883378,12.500897410072875,4.938688342933501,-0.08502609358529013,-1.1022077113017674,1.0594248917498439,-0.593505920516741,0.6087181125903202,0.34072417736011
10.442088417683538,12.514739604363719,4.958640597045899,-0.09929056877685433,-0.9329797569887395,0.8219770688645003,-0.6584479762161867,0.8541328483750201,0.22621172092243624
10.462092418483698,12.426452809209025,4.96764925952493,-0.13474753789803007,-1.0708485462142674,0.5983406233003872,-0.5683369494473243,0.8735211903128106,0.6487526641109913
10.482096419283858,12.644776506503234,5.004463040321841,-0.06554549402766949,-0.9152208928252363,0.9207384792388791,-0.5215574615726954,0.8178503342340007,0.43727071038514576
10.502100420084018,12.451639487726133,5.05952416008046,-0.0949446190459978,-1.164736269335969,0.9282402165173913,-0.4175244544787385,0.8550893577628345,0.4011211057609775
10.522104420884178,12.558585683893538,5.027342639490968,-0.0692221244712525,-0.9669054193101223,0.6500608829330468,-0.5914755679465454,0.9793314903790789,0.34567315968553536
10.542108421684338,12.507945300480763,5.017449577002873,-0.013192278117452915,-1.0217100270774253,0.7738079406378764,-0.3902167551160494,0.9668661166400863,0.47067275553756804
10.562112422484498,12.434782273563526,5.046968314385644,-0.0015565041838714183,-1.0272989639521881,0.8668823121201809,-0.4782593893034394,0.7860389153947228,0.39709569819358437
10.582116423284658,12.41368577406643,5.084971722717415,-0.18832384131294486,-0.9759910236035724,0.8699205181496251,-0.44850415841252245,0.9143788159011441,0.5302546586531913
10.602120424084818,12.34929031136251,5.009480914066066,-0.034816032122926055,-0.8808400443598982,1.0134240909335772,-0.5236679633031092,0.7844986201357129,0.5691003441329012
10.622124424884978,12.414152907573232,4.984515032099295,-0.0029411237308763424,-0.9517643561221514,0.8633150734468004,-0.5251713485398135,1.069537315250864,0.6692805790153051
10.642128425685138,12.449413366747367,4.997023612058888,0.04233331368567102,-0.9570620227608599,0.8677286398350896,-0.4513396325760584,0.622765497670472,0.4317105906496882
10.662132426485298,12.26914649689532,5.0422952479279575,-0.01864494515845589,-1.0009930349352125,0.9589639137451789,-0.5786571401869957,0.9839372837650702,0.3922772123779817
10.682136427285458,12.404514925129506,4.984491449189765,-0.10120274880558293,-1.0369682151425892,0.889247682622898,-0.4540268171027338,0.7754470739759187,0.3602127407159022
10.702140428085618,12.38501213092854,4.944301124957383,-0.14982845647450566,-1.2755841093000735,0.7037808590630181,-0.5246962013794092,0.6510038367979184,0.4774024751259633
10.722144428885777,12.3838553291767,5.038273873106966,-0.05096027221176669,-0.9719511578876672,0.8107859996699028,-0.4579100321069838,0.9631849598135385,0.4677696960077053
10.742148429685937,12.408308326974643,4.99809165334631,-0.08594001273230785,-1.1498042493417304,0.6844999875812756,-0.6128718931149536,0.8732094974774771,0.6011938560326366
10.762152430486097,12.572423736666739,4.902075983797175,0.033193467424476875,-0.9227573224831351,0.8457020717862138,-0.6419813521412338,0.8184158156579379,0.46840586324401745
10.782156431286257,12.419728090719365,5.13033827015566,-0.011944451507465204,-1.1309401447306038,0.7188070345779194,-0.6669683865477933,0.712537489531495,0.39375825705305334
10.802160432086417,12.35627364696422,4.989443779383142,-0.12436347802251436,-0.9882955238239536,0.8913227312684472,-0.6144767057714549,0.7061923437260014,0.3336986819399276
10.822164432886577,12.232720242866943,4.935749865312505,-0.19198603578076226,-0.9103278248703766,0.7619069723484653,-0.560690896928993,0.7923264545472252,0.35732480978242137
10.842168433686737,12.594880849316924,4.9007995185483,-0.06041770480445787,-1.0151652149182673,0.9754606624631194,-0.5797475754023357,0.7220470169882922,0.4300459754794999
10.862172434486897,12.436918338080721,4.97202935875104,0.08138691897314945,-0.9822521095157937,0.7574817824988799,-0.510485185575591,0.7881628114124263,0.45762340873531315
10.882176435287057,12.325404536912668,4.998702823920785,-0.09658920361237919,-1.0274984581735311,0.9510683223135076,-0.5253649472821723,0.8071390923891523,0.42092556357012634
10.902180436087217,12.491846396181607,4.9178897991424035,-0.1587884137966101,-0.8466982857294683,0.7098080100611045,-0.6054520629304806,0.881071505261518,0.4572405863339608
10.922184436887378,12.38766889520939,4.930448569473134,-0.11851589168033017,-0.9721327911344363,0.9243683561430798,-0.6987918722334923,0.8368660098375,0.4687372407855221
10.942188437687538,12.356137300247982,5.0164752388478515,-0.17653206834012414,-1.0523674284981508,0.7517377461538437,-0.5331661612061005,0.7630724156620932,0.48047146771546895
10.962192438487698,12.41496335289585,5.0392004512125315,-0.36652933191613835,-1.0130156785782332,0.6535536361767409,-0.598487331974241,0.8714005258628477,0.33002567892987744
10.982196439287858,12.333797604574842,4.9394415271842105,-0.22103603667310834,-0.866868606619735,0.86663021720222,-0.6291105053648236,0.8113610902001838,0.6114316244252692
11.002200440088018,12.217903752074113,4.95868041297274,-0.14955525393523067,-1.006311000771827,0.7843365902864535,-0.5538020850655665,0.9091434166225869,0.5773633052332634
11.022204440888178,12.364163317524834,5.05914779056932,-0.15547770941619715,-1.1116655448377062,0.9661116579054821,-0.7568255198206812,0.7091778122665597,0.417138772018064
11.042208441688338,12.257975551213823,4.979331134157618,-0.24980825254077313,-0.8493083618030638,0.799279651540465,-0.6991042967802302,0.7122987931984792,0.49055697572549883
11.062212442488498,12.416716865879904,4.896648030018383,-0.020921306375178444,-1.063212771169427,0.561900476969684,-0.5013039193119635,0.8211204670442789,0.4499247062665496
11.082216443288658,12.553790514307506,5.01197127099061,-0.24306944431488456,-0.9693219216390904,0.7958876377281375,-0.4895980044092989,0.8826043813468971,0.5138223377106643
11.102220444088818,12.473335908030426,4.8885524715114945,-0.2536463498149303,-0.953707535994306,0.9026068045842088,-0.48933638258747486,0.7788830004522249,0.3780722595002537
11.122224444888978,12.260183429452708,5.051437361593905,-0.2166987842674558,-1.0099469055186487,0.7890077823925877,-0.7935622755727858,0.7874742805219389,0.34999109255950545
11.142228445689138,12.338948376856216,4.914777348780737,-0.3549539205978673,-0.9634151509466049,0.8489002421159155,-0.5191253738549122,0.879664702000252,0.31818759321908985
11.162232446489298,12.305363198350234,4.930986920814759,-0.22032300315790002,-0.9916118730747714,0.6979750223890409,-0.7059229280008121,0.8889254495209344,0.4692060765917267
11.182236447289458,12.247677081948254,4.800807538111097,-0.24558628842513458,-1.0665135675892288,0.6345012914645525,-0.5224056585122083,0.6278098599329112,0.41110807611403544
11.202240448089618,12.321354645719852,4.967331247416925,-0.15597773832722778,-1.028874039268399,0.7799638418617123,-0.6415722785480287,0.8314922368860882,0.564997764078629
11.222244448889779,12.451641247435527,4.926105183888952,0.023449555695461338,-0.8965670910218737,0.6854678662780174,-0.6725795620246311,0.7077993062290048,0.5383626861717011
11.242248449689939,12.263272579457713,4.950380609579563,-0.036029822857688354,-0.9854397958141582,0.7124730268414478,-0.7291182700140212,0.9517520913503371,0.4504533620575292
11.262252450490099,12.200153207997033,4.97166772213615,-0.2148593023334702,-1.177432501051777,0.74262929765874,-0.5383891613700887,0.7080319030312818,0.4052058991710262
11.282256451290259,12.334979274526608,4.950571001584885,-0.29645455845685253,-0.8985458066132828,0.8396312855173347,-0.6402001750251727,1.00080420799046,0.48027206522204624
11.302260452090419,12.318398723390848,4.992028499385252,-0.3054654903639112,-0.8885642731529567,0.8756769779520523,-0.7353532421837636,0.8692707395065968,0.45680468897480253
11.322264452890579,12.29958815798513,5.023074309989934,-0.36274859738936244,-1.1657179114716811,0.7635873828162243,-0.7884699854228343,0.6599431873141741,0.3090833357678505
11.342268453690739,12.492855324255544,4.977221398136191,-0.2157315213769073,-1.0747704847669173,0.7190576191618019,-0.5724974151476173,0.882379319164417,0.7185675981191453
11.362272454490899,12.340346812265631,4.916887171487312,-0.22248100537928425,-0.9838919622346671,0.7666651207954092,-0.7173351035495881,0.6285366299875488,0.40350144019959466
11.38227645529106,12.410298273112769,4.916286066015881,-0.32900367313344214,-1.1728143187786957,0.7980510417237526,-0.5857929054764723,0.7830356484902854,0.4412257891324908
11.40228045609122,12.425594959767635,4.947135050672969,-0.2080633220090466,-1.1577736574940056,0.761614934061204,-0.5471761035337938,0.7984309017230301,0.24789274378536055
11.42228445689138,12.246287618923697,5.0206465789974635,-0.007305249215697085,-1.0854861567679093,0.7199302877946093,-0.7071345351925825,0.6774075863293487,0.24828632207205178
11.44228845769154,12.313788788150916,5.052823073365263,-0.3340368660292766,-0.9616545265608438,0.6617168983627836,-0.6145506540396402,0.8171396996508944,0.5041105900646452
11.4622924584917,12.48438935145985,4.983984391642161,-0.30851212835336617,-0.9432790698159647,0.6714344621730046,-0.708753857031093,0.9729257916435943,0.2168356569349825
11.48229645929186,12.36693238585114,4.874121726688648,-0.26263732568261344,-0.952558787127818,0.6113943645154877,-0.5429982217697226,0.5562807390849546,0.2936016127466408
11.50230046009202,12.314455565398742,4.929426127801708,-0.31328493816489866,-0.9172229789609666,0.8368377269972581,-0.5614845633200993,0.6085406792635097,0.4639670073050076
11.52230446089218,12.401115926370684,5.0480804616962605,-0.40102390528534626,-1.0621065080040655,0.7082351541569123,-0.47840589970608016,0.6044733214689102,0.45665903470537267
11.54230846169234,12.445907741742555,4.9694205333223875,-0.3752061825245356,-0.8690832482469474,0.9063514377494122,-0.5349377167663414,0.9129150561924118,0.3418814746963123
11.5623124624925,12.422127770787549,4.876275656630901,-0.315341941559958,-0.9950551279736792,0.7977004399319247,-0.6358465961831424,0.6960542110268281,0.3017887692659904
11.58231646329266,12.223923880331544,4.995612690246404,-0.5874157827942508,-0.9833350486939273,0.9357566097771904,-0.5862706455950146,0.5388091485173236,0.5456733070186479
11.60232046409282,12.555133563997543,4.993738094437656,-0.42531204422065816,-0.8808074586643426,0.769178884734017,-0.6950646500359304,0.9093369447286554,0.34020985122357006
11.62232446489298,12.463358601402934,4.97230789291276,-0.2621586452183277,-1.1145744937423772,0.6980180128213528,-0.8186940633009444,0.667849181514253,0.36889810898858116
11.642328465693138,12.297683171109606,4.968970588537999,-0.493055216030886,-0.9383448650385466,0.7285614403691584,-0.6196687137218726,0.7179974889962468,0.3835913047965499
11.662332466493298,12.324096246520153,4.929258353151993,-0.30050495072272654,-0.8966803731123875,0.8231671756089622,-0.7576119838531244,0.873619952314217,0.4280409918689755
11.682336467293458,12.667655823520077,4.900087518210975,-0.4012043783902959,-1.0672637240725527,0.6609624036747609,-0.772632772199264,0.678065160421838,0.445530001441624
11.702340468093618,12.283595901894241,5.017532114498681,-0.33390024394413337,-1.0354452006060535,0.9670723986529672,-0.6240012360475007,0.7003075600819094,0.22731396791113576
11.722344468893779,12.270168401225268,5.054586023793645,-0.396994647156553,-0.8872094478139094,0.7246852919846599,-0.7633174024466771,0.7297631328572279,0.5035039324898998
11.742348469693939,12.351011691886889,4.862884330281249,-0.4913850443487896,-1.1213483730556328,0.8063695545157464,-0.6951603216249511,0.9021729814098975,0.33219686835382434
11.762352470494099,12.30358696664552,4.976028855759995,-0.4624986094873886,-1.0742923324886593,0.8226120672896603,-0.6504415042150592,0.514901949686572,0.31318115705316213
11.782356471294259,12.39215316934582,4.89271873132261,-0.43490183475101446,-1.0047122328796978,0.7734602719665055,-0.9094842240380699,0.6727005483054372,0.2618644471349366
11.802360472094419,12.280838304977713,4.983804407676483,-0.4967001985370199,-0.9532839004702087,0.7985698187407493,-0.6932177780234028,0.7164612214734624,0.43273782619522194
11.822364472894579,12.223928624659925,4.963252362667283,-0.279922009621299,-0.9851471006291734,0.8785588299259652,-0.6566660949221763,0.7264128498564729,0.24014070169067167
11.842368473694739,12.430004080935264,4.929532705586646,-0.46881833230221526,-0.7602489462286488,0.618689877654656,-0.5131782499796868,0.7261908713778099,0.27040553118762767
11.862372474494899,12.240585763372453,5.0525335134369715,-0.27418530014938414,-0.9813671554220876,0.7987351447181996,-0.6226260346631168,0.7624905810463967,0.3454624802791794
11.88237647529506,12.442346506463327,4.935175099777874,-0.32620424251901153,-1.0040934463682334,0.8184860854043329,-0.5778817471329253,0.6739023947271119,0.34637329249955545
11.90238047609522,12.322067058886276,4.940510014240189,-0.36955704176446424,-0.7420136429713542,0.8786738799210463,-0.6786287199956221,0.7064439507630323,0.43702247808234285
11.92238447689538,12.421178256367153,4.9065525714302245,-0.5509253552136356,-0.9405136515960415,0.773761715652294,-0.8029119929472852,0.6849337541109517,0.3195285463504181
11.94238847769554,12.4135295409148,4.9374615394381385,-0.4928351324528284,-0.8221557941195862,0.8387379950677267,-0.6629416704797156,0.5463877269336538,0.3080668706415741
11.9623924784957,12.14844476954018,4.913336218369351,-0.47660384804259615,-0.9551562354942105,0.6469299734772843,-0.8507506567390003,0.7334649809268152,0.4586720758157243
11.98239647929586,12.360177877929715,4.902485555808897,-0.35340888278668764,-0.9050912333700283,0.5429595887796755,-0.8992668992691399,0.6168570271393624,0.4963375601577632
12.00240048009602,12.201643138206961,5.005306965797593,-0.4628568199816041,-0.831883041544761,0.628302733747293,-0.7495362026593005,0.8517637006124594,0.31707698950937335
12.02240448089618,12.413478287355137,4.909760549535555,-0.37299717451276854,-0.9329467379804374,0.55002557696564,-0.75597025480455,0.5734086725051611,0.3913709164474521
12.04240848169634,12.441307806586595,4.988355302194152,-0.4449350691075043,-1.0499702766214398,0.9505848372000243,-0.853158634478443,0.679393764015325,0.4553888405519784
12.0624124824965,12.565142082113564,4.861524697036269,-0.46982991508725763,-0.9026633159639371,0.7350428653586992,-0.7517914252233059,0.7086576863683886,0.3682886608976466
12.08241648329666,12.189060879802245,4.855172157994425,-0.4612216966428822,-0.8238098494485404,0.6838925026377269,-0.8218832842908866,0.6313566310390528,0.40542103584750183
12.10242048409682,12.268649315362781,4.938210087320513,-0.5014510410947409,-0.8927674877725311,0.7059477586263232,-0.7985670018129598,0.741969359045084,0.48469035440961444
12.12242448489698,12.318409340775597,4.990271196511386,-0.4319602296594419,-1.0641485396855408,0.7649190573632954,-0.7056158363501359,0.663989232984472,0.5625871957021669
12.14242848569714,12.28132040139661,4.959072227435422,-0.6257778004895496,-0.936126905959111,0.7859599089438319,-0.6820833556270366,0.5088388095564723,0.3847709909427858
12.1624324864973,12.261669693313863,4.861124365099648,-0.47773750611011767,-0.9088855047948878,0.6882657204686564,-0.8770931094179628,0.6667294169204037,0.27164335112446625
12.18243648729746,12.304633872622075,4.939189991796674,-0.5273747684329133,-0.8816912287159334,0.5299704739345082,-0.7996368564000378,0.5292239659113821,0.4531348471484168
12.20244048809762,12.427541869768126,4.982062646793712,-0.49318775544199056,-0.7957346009133313,0.583013673629514,-0.7814337792598417,0.6357809754685221,0.30649459852626426
12.22244448889778,12.263375401282593,4.952724655205229,-0.5783797362321069,-0.9306597379280221,0.6197751681391538,-0.746979788971971,0.5468467146708059,0.4675638866614764
12.24244848969794,12.407420585637158,4.941461339691778,-0.38047651102629,-0.8303725401251728,0.6000913903420602,-0.8079262349294096,0.7117295943178671,0.371318401651236
12.2624524904981,12.27124523848351,4.987130409193552,-0.6317167715434676,-0.8137996189597093,0.7427504504578734,-0.817103459665972,0.6879174131655813,0.22218094960886528
12.28245649129826,12.174966473021986,4.83735364233422,-0.6502252258200318,-0.9929003053034379,0.5883908875933127,-0.8713862622127547,0.6522077743250911,0.2301685529969203
12.30246049209842,12.317967226744997,4.961026222966469,-0.5183035891945322,-0.656499731594291,0.5019782469068826,-0.8045975008861052,0.6562876673648984,0.16436822953003058
12.32246449289858,12.431649952378603,4.977544249680555,-0.4912381620104383,-0.8337455324716524,0.6053485576164521,-0.8133098889614288,0.6724556062844291,0.20315597260259263
12.34246849369874,12.379267301390948,4.885424567440748,-0.5667208610246719,-0.9359464469047123,0.5788689528978477,-0.8496958515749313,0.603542722198679,0.15426670232620127
12.3624724944989,12.388921537855268,4.880706988537647,-0.5507054696714029,-0.717953296146085,0.5299120300506899,-0.7556800649537481,0.6158484670340628,0.31112699820117035
12.382476495299061,12.432241511288291,4.900343250513059,-0.6337929644832976,-0.6198924872672015,0.7276714286578465,-0.9216198394169215,0.6460027242430174,0.3504665575731516
12.402480496099221,12.47898406919056,4.941010907618206,-0.6626392762957626,-0.9576526532162417,0.554848228759336,-0.7355932597167285,0.566465961402475,0.4465086779360662
12.422484496899381,12.25799120766593,4.860177449093399,-0.5679827782710936,-0.7464880961752716,0.7163845757832942,-0.5697684425183119,0.6889779848987327,0.40615260744267057
12.442488497699541,12.305450364624416,4.972672349528114,-0.5218918475420944,-0.8552655260823653,0.44361280620817356,-0.8310795438104622,0.695823519269979,0.29035705122751454
12.462492498499701,12.16308735672957,4.937671069048388,-0.562665202763772,-1.0842149532487817,0.4617906062840237,-0.6166112012036918,0.696890888498228,0.3455096914030579
12.482496499299861,12.312772149823967,4.905312543070416,-0.5035012844229951,-0.8889351473708508,0.4754393602478245,-0.7113230279911932,0.6809699374216387,0.35336058852065877
12.502500500100021,12.283183705168321,4.98783670594227,-0.6299136523711608,-0.6957203477566531,0.4497027662744749,-0.8235035648669277,0.6267265327718079,0.39476009874459717
12.522504500900181,12.201133023454053,4.937551504289545,-0.5716631925439021,-0.6289102560856323,0.6390119783292619,-0.7349018174457589,0.5366619594726172,0.2629741940684798
12.542508501700341,12.437845803859195,4.974589795951071,-0.5949656716601905,-0.7671958154842017,0.831590142808704,-0.7908179930428917,0.6556532663805276,0.1558571549216054
12.562512502500502,12.330069025113197,4.8929949246863504,-0.7384245795106453,-0.8402782316871912,0.6290139315011899,-0.7879280101031054,0.6982586103066832,0.2671052322857549
12.58251650330066,12.330412889875051,4.867403321797581,-0.5048300001139395,-0.8490122568438632,0.5847146719903434,-0.9168368848717923,0.5998460875653197,0.37194905747633
12.60252050410082,12.204730010239476,4.9269777230298075,-0.508832789102598,-0.9888550612594158,0.4864124196373141,-0.9951148520387251,0.4304115139308189,0.18435481278302895
12.62252450490098,12.262037545044146,4.962450820537936,-0.5935283709853713,-0.7847677203746891,0.6438288198362285,-0.8107708164291919,0.5484894382359022,0.26102146583765234
12.64252850570114,12.107387984197315,4.817930638123705,-0.608764198538988,-0.8055087259864366,0.40284618713189035,-0.8761127495023103,0.5416562002277581,0.12156374711752294
12.6625325065013,12.12472951954363,4.8961730934230525,-0.6417916505914923,-0.7868884231545891,0.661611364481463,-0.9264404869401779,0.4969427947361592,0.42075538465359363
12.68253650730146,12.216282223347008,4.88627659632719,-0.38651158756417964,-0.9240645144957454,0.6211914258445475,-0.5736221573105165,0.42874987701990275,0.35694394348342057
12.70254050810162,12.241341316788265,4.87260455006864,-0.6578356605813341,-0.9220676348102362,0.5661055325786217,-0.7548561104233755,0.5007012484309933,0.2119043849563031
12.72254450890178,12.379553219116188,4.853019228855516,-0.6287300726877499,-0.8310643433204126,0.7109475248629167,-0.7994049547756659,0.6575094937263171,0.29765803835646054
12.74254850970194,12.188558564162673,4.865309569855137,-0.4982657026228682,-0.6750112662797305,0.6042804939780245,-0.8019887263143477,0.46905462653397684,0.240175053651829
12.7625525105021,12.20134277993549,4.918112678395631,-0.5856684056088238,-0.7562551153407849,0.45937529350916134,-0.7172673486726089,0.4921024969956725,0.39078999154621014
12.78255651130226,12.332676052696568,4.87081961447573,-0.7036657716115389,-0.9106084015620759,0.5917974746017509,-0.878227294083672,0.5363659256623512,0.19001827511021702
12.80256051210242,12.361005087393252,4.87307946978606,-0.639029457231275,-0.7678194633165066,0.3912793939981808,-0.7601210410575117,0.6860714814974638,0.33434274560750293
12.82256451290258,12.292825911790123,4.913258562672222,-0.5484874812936515,-0.6199592433420501,0.6487626400151605,-0.7178924559026483,0.516608745397128,0.3324760438317265
12.84256851370274,12.334375506336634,4.901236900655476,-0.6629002510340373,-0.7446570952731614,0.5285593516711418,-0.7445012244988682,0.5409227094853352,0.2301183347086274
12.8625725145029,12.475613620550774,4.935166505595574,-0.5796273201863222,-0.6503593567402153,0.5891925506588525,-0.6644017070003494,0.5459940235272209,0.35213746890108194
12.882576515303061,12.224847551215396,4.84858645564365,-0.5470248140071999,-0.9483861544726704,0.468261170504297,-0.9941905610505276,0.5539767705068949,0.37599978843707554
12.902580516103221,12.234246114188336,4.846327418979923,-0.7190721671795532,-0.8462422370454485,0.4571912220810203,-0.7792683294002566,0.6098182522594885,0.1593619868088061
12.922584516903381,12.43779323710839,4.8344053940507505,-0.7435436015981853,-0.9016168908968035,0.7469523063126489,-0.8961748101663011,0.3920920713839191,0.2436559273078435
12.942588517703541,12.335788670666203,4.903505921989391,-0.6457730880641865,-0.7168880925090299,0.5538999372132661,-0.9620283706459312,0.45198268348896115,0.19945376670103027
12.962592518503701,12.241452424153211,4.862304841564761,-0.6547713194752186,-0.6887284849162946,0.5322571685847095,-0.7423085008247738,0.5428124786548857,0.37113568921502355
12.982596519303861,12.155373962673393,4.920631673891281,-0.6981041259430649,-0.7821075264016134,0.4740193986364598,-1.0305894362699262,0.5215701454060072,0.4449596333038666
13.002600520104021,12.234747291365345,4.878308758032496,-0.6201498973198875,-0.7068363280901725,0.6753173743927118,-0.9561175605628144,0.5576746285997508,0.10805741472976105
13.022604520904181,12.255906641305453,4.864862545394946,-0.5637848407735591,-0.7076963100862794,0.35141097598200066,-0.9972442894669772,0.38742032148736444,0.141217948779448
13.042608521704341,12.188427357581176,4.864761742385733,-0.6507770062181459,-0.5850008872491337,0.5611709465288854,-0.8063032216734384,0.6199821707539884,0.05775527623768634
13.062612522504502,12.334997650807072,4.926621048029607,-0.7167563717594155,-0.760339463477407,0.4227953289425923,-0.5671766415226889,0.6515339077471348,0.16599162881053603
13.082616523304662,12.314398711110066,4.82637812359105,-0.5728007266364405,-0.7157378694811627,0.4878857216061191,-1.1217194425088912,0.32347561004741765,0.3264723123391242
13.102620524104822,12.125118215909334,4.932971963238079,-0.7993417134610009,-0.7012400048047035,0.6849874217763149,-1.0089153090471408,0.44734658468486604,0.38367116476383667
13.122624524904982,12.270478671012102,4.90113345937461,-0.6847425896785484,-0.7550945271442419,0.7104938494441296,-0.9931059837466218,0.29790054161672913,0.25867212061241407
13.142628525705142,12.31369449616576,4.811225555148462,-0.7908003948424067,-0.7740326783357192,0.5207156968378398,-1.0516934628536523,0.5905974494369964,0.31665281949441804
13.162632526505302,12.258898696213276,4.886636554542655,-0.9235568488683028,-0.657953901291069,0.4359154475740133,-0.8819228503766735,0.4974458759845243,0.29506705156815577
13.182636527305462,12.329274843437583,4.900474387301545,-0.6839300349096205,-0.790346557565109,0.5620641481534162,-0.7884483468543768,0.45330986964564074,0.26604465365418317
13.202640528105622,12.261515684045941,4.887602548612973,-0.5315507321028037,-0.7373397320802735,0.4726082734481275,-0.9401536974701973,0.4400975914433029,0.11978243681099765
13.222644528905782,12.095784310620617,4.8292786800223695,-0.759062287311991,-0.6946439807445366,0.4436829686388128,-0.9368024803487935,0.5558439737576644,0.49702541933831723
13.242648529705942,12.243712216688767,4.761569110536167,-0.8524172696131589,-0.6163564021663364,0.3912028436048578,-0.9043152575632136,0.6224742584461133,0.1504827823614256
13.262652530506102,12.282759532249948,4.928794606433193,-0.7403930624190833,-0.6382262729824345,0.45384764704629127,-0.8993789973157974,0.4256607067062993,0.21673386976550568
13.282656531306262,12.113708220851194,4.900901410785187,-0.9519818334244095,-0.5086002987013475,0.515345441105336,-0.7524540589561036,0.3737011049666124,0.23960461137737027
13.302660532106422,12.329893218725305,4.897555505486828,-0.9396190134975099,-0.5760656483175468,0.4059280707203226,-0.9592374816604735,0.4715936840811744,0.18420833783776397
13.322664532906582,12.214199061070675,4.868587885721748,-0.5682453671823268,-0.47900375534873063,0.5422737163377931,-0.8328783504999671,0.6330170238480441,0.0019357591766168414
13.342668533706743,12.158627952373148,4.961725860425104,-0.5972164384638414,-0.7864573443268458,0.6450991025688264,-0.8430864633548731,0.47226707195866674,0.11053381833813135
13.362672534506903,12.251976425593307,4.847570415334263,-0.7554700091330456,-0.771256384490485,0.44316150454910547,-0.9252156449833263,0.5878478881436031,0.2848951209165047
13.382676535307063,12.170154650423921,4.826682423767638,-0.7609360406522286,-0.5848341761892595,0.4119675276188161,-0.8841935186385513,0.4206920595501474,0.1738823448893739
13.402680536107223,12.060940905469604,4.874176563316598,-0.8497292405990248,-0.4474270872080728,0.4815404416992085,-0.8699219962277467,0.4833702720024916,0.23234583679841356
13.422684536907383,12.115707799220305,4.891684444385203,-0.6436836810807269,-0.7680587649766,0.37453250337580424,-0.9907678589358719,0.48024831642510973,0.24949053151849085
13.442688537707543,12.245381002542635,4.858109682190084,-0.674507529057249,-0.6602076376925701,0.4496350224392176,-0.8126320450870018,0.37745244229859426,0.5254127718858844
13.462692538507703,12.197057524074705,4.863837396321444,-0.8603422358065931,-0.6770500276766983,0.3759917686351472,-1.115522770567084,0.34341772984326785,0.25938475590500454
13.482696539307863,12.33926175221007,4.960676130895039,-0.9128210627363698,-0.4201080607936478,0.35668351932974784,-0.9793287860925111,0.5457085085751917,0.11777135213805107
13.502700540108021,12.073370101197742,4.93981368670951,-0.7720766064727617,-0.79888293511825,0.3607676038027842,-0.6741465292399066,0.432427416581937,0.18058994914221557
13.522704540908181,12.20553593803553,4.9107813890245815,-0.9171897479824038,-0.6580377556314322,0.3130254579781967,-0.9816362184815769,0.4066416793240641,0.27089902355115525
13.542708541708341,12.222231547579401,4.864868524851661,-0.7907468669420963,-0.5672263674818472,0.33599644973492104,-0.7851551930239723,0.4771498457061535,0.3136662822282077
13.562712542508502,12.14509599716281,4.839093960121221,-0.7123952660370232,-0.5499519994963717,0.47665277808090606,-1.116512207620147,0.46680284184587834,0.4618285421990737
13.582716543308662,12.178119995572017,4.82387171342465,-0.7544124588269563,-0.47656637894385623,0.3104620956912098,-0.8438189891134233,0.3014090358235396,0.16304778823831256
13.602720544108822,12.267722812465454,4.941424684179125,-0.7983312429459458,-0.4655431387657589,0.5070785596938815,-0.9501424169760079,0.33825286447988,0.18786044637548852
13.622724544908982,11.992142240261757,4.859935930524051,-0.8006559164426771,-0.6576931971708907,0.5686460897734709,-0.8166720197475228,0.2589725636786134,-0.013876588732706668
13.642728545709142,12.16785201554079,4.915953419707784,-0.9247628988657268,-0.5869997489579645,0.42898678366100385,-0.9807611252007298,0.19902171806087052,0.3280505021947807
13.662732546509302,12.23919198685011,4.795229835327522,-0.7273238256371652,-0.39488280177451784,0.36836836570482784,-0.738619328454521,0.2482751343864532,0.2121896999753656
13.682736547309462,12.172224952184283,4.928431959659025,-0.9165010515426892,-0.5492623949685231,0.5181945329477713,-0.9028017811761825,0.33454549854402327,0.2926521116574734
13.702740548109622,12.162496505238476,4.916370794403951,-1.0550322619785957,-0.6320096699809518,0.3530331945688001,-1.0167037314949348,0.5041454669684703,0.28240225322300216
13.722744548909782,12.255777049522738,4.859269738558388,-0.8616923907994661,-0.5523432007378399,0.4078392374644106,-0.8800062867719876,0.5327681742182251,0.2628331383412698
13.742748549709942,12.039027531349616,4.920444122701654,-0.9329182947110857,-0.6012450587278177,0.5177778461913912,-0.9211060703206343,0.38973791312130784,0.30539767451636995
13.762752550510102,12.190720632221767,4.838919552073704,-0.7351412240388785,-0.6209400789083139,0.35415672803908105,-0.9505022969634616,0.39876392849579906,0.33967298427706816
13.782756551310262,12.196673386337375,4.838510279048183,-0.8594319903833234,-0.6567841221282849,0.33263965268941176,-0.9576940076300582,0.4057427970006286,0.16796425458035752
13.802760552110422,12.335288619376188,4.827950571796796,-0.7644545125386203,-0.4623625029448961,0.2590196713441169,-0.8738627335006218,0.35072516530754944,0.10666137370362896
13.822764552910582,12.056514469027281,4.894714745451465,-0.8501522653305648,-0.5657512118748241,0.14073177393379593,-0.9529851505474409,0.37176531347045694,0.21938190935831461
13.842768553710743,12.336146763838405,4.814196759484537,-1.025715799479871,-0.6400459391645908,0.3024458912208467,-1.082577342681239,0.5069268590225069,0.14110561774129124
13.862772554510903,12.22238713017845,4.83765333079796,-1.1428579218414787,-0.5659497369451809,0.2613927363508685,-0.9668563879854489,0.19334712057373454,0.27894902479524747
13.882776555311063,12.296767340393032,4.821638283640996,-0.8829438990724687,-0.38691054723021523,0.424301011201884,-0.896873465441523,0.38139497898218305,0.15793319031556574
13.902780556111223,12.139669170751354,4.858320775503581,-0.821028053939205,-0.587298598584298,0.4534939616615354,-1.0156514388310487,0.27748371341420014,0.21530804148584037
13.922784556911383,12.202970308618234,4.816470919686596,-0.903106044564921,-0.415644296940221,0.2155508224513976,-1.2222757596376523,0.3712960941633669,0.16196550087014877
13.942788557711543,12.18010446088181,4.876914586158195,-0.8331142195773706,-0.5419120439603365,0.3273766019482952,-1.1141777980687557,0.3528921327929214,0.2893793522555369
13.962792558511703,12.048460635779477,4.847309217689461,-1.0591605706808005,-0.7307158854587802,0.34386835397433757,-0.7920979138444562,0.3596423533893179,0.17641890645578492
13.982796559311863,12.221331365450382,4.8717588658811195,-0.9467076993222403,-0.6203904379929557,0.36100359647868446,-0.8338329553505601,0.33802715794940785,0.2223403364820763
14.002800560112023,12.096437447033429,4.8079764602706145,-0.8864875566239889,-0.23559682684183775,0.27702379845209824,-0.8044891288167458,0.4915954899898499,0.15383492789199144
